Participant,Trial,Group,Block,Correct,CorrectKey,Response,RT,DotDifference,DotNumberRight,DotNumberLeft,Confidence,IJT,Experiment,RestTime,ValidChoice,ValidTrials,ChosenDots,UnchosenDots,AbsDiff,zRT,zConf,zDiff,zAbsDiff,zChosenDots,zUnchosenDots,LogRT,zLogRT
1,1.0,Monolingual,1.0,1.0,right,right,1101.30704947,6.0,56.0,50.0,0.64,953.0,2,,True,0.0,56.0,50.0,6.0,0.826170687354,0.719881410091,-0.187225560028,-0.187225560028,0.943447334361,0.3282486356,7.00425298019,0.866209847421
1,2.0,Monolingual,1.0,1.0,right,right,1217.84731349,6.0,50.0,44.0,0.64,1020.0,2,,True,1.0,50.0,44.0,6.0,1.40881439244,0.719881410091,-0.187225560028,-0.187225560028,-0.352293050866,-1.1658486023,7.10484008203,1.3367032524
1,3.0,Monolingual,1.0,0.0,right,left,917.755673328,5.0,55.0,50.0,0.38,720.0,2,,True,2.0,50.0,55.0,5.0,-0.0914954494863,-0.785378337736,-0.847442008548,-0.847442008548,-0.352293050866,1.57332966719,6.82193120414,0.0134047496017
1,4.0,Monolingual,1.0,0.0,right,left,1184.51003605,6.0,56.0,50.0,0.68,1403.0,2,,True,3.0,50.0,56.0,6.0,1.24214448648,0.951459832834,-0.187225560028,-0.187225560028,-0.352293050866,1.8223458735,7.07708449638,1.20687726317
1,5.0,Monolingual,1.0,1.0,right,right,1318.20475841,7.0,50.0,43.0,0.44,586.0,2,,True,4.0,50.0,43.0,7.0,1.91055200247,-0.438010703622,0.472990888492,0.472990888492,-0.352293050866,-1.41486480862,7.18402605839,1.70709348102
1,6.0,Monolingual,1.0,1.0,right,right,951.127361108,7.0,57.0,50.0,0.44,769.0,2,,True,5.0,57.0,50.0,7.0,0.0753464911659,-0.438010703622,0.472990888492,0.472990888492,1.15940406523,0.3282486356,6.85764797693,0.180468972947
1,7.0,Monolingual,1.0,0.0,right,left,917.291133785,6.0,56.0,50.0,0.62,803.0,2,,True,6.0,50.0,56.0,6.0,-0.0938179175429,0.60409219872,-0.187225560028,-0.187225560028,-0.352293050866,1.8223458735,6.82142490691,0.0110365582443
1,8.0,Monolingual,1.0,0.0,left,right,650.806016858,7.0,50.0,57.0,0.58,953.0,2,,True,7.0,50.0,57.0,7.0,-1.42611175764,0.372513775977,0.472990888492,0.472990888492,-0.352293050866,2.07136207982,6.47821162063,-1.59433415782
1,9.0,Monolingual,1.0,1.0,left,left,1034.29593735,8.0,42.0,50.0,0.42,786.0,2,,True,8.0,50.0,42.0,8.0,0.491148255613,-0.553799914993,1.13320733701,1.13320733701,-0.352293050866,-1.66388101494,6.94147622045,0.572573278662
1,10.0,Monolingual,1.0,1.0,right,right,1067.92298605,8.0,58.0,50.0,0.6,819.0,2,,True,9.0,58.0,50.0,8.0,0.65926687462,0.488302987349,1.13320733701,1.13320733701,1.3753607961,0.3282486356,6.97347090648,0.722227543425
1,11.0,Monolingual,1.0,1.0,left,left,1101.29739043,7.0,50.0,57.0,0.42,753.0,2,,True,10.0,57.0,50.0,7.0,0.826122396929,-0.553799914993,0.472990888492,0.472990888492,1.15940406523,0.3282486356,7.00424420963,0.866168823355
1,,Monolingual,1.0,,left,,,7.0,43.0,50.0,,,2,,False,11.0,,,7.0,,,0.472990888492,0.472990888492,,,,
1,12.0,Monolingual,1.0,1.0,left,left,1501.48356846,7.0,43.0,50.0,0.44,736.0,2,,True,11.0,50.0,43.0,7.0,2.8268554436,-0.438010703622,0.472990888492,0.472990888492,-0.352293050866,-1.41486480862,7.31420894395,2.31602035115
1,13.0,Monolingual,1.0,1.0,right,right,1184.44634674,6.0,50.0,44.0,0.64,703.0,2,,True,12.0,50.0,44.0,6.0,1.24182607142,0.719881410091,-0.187225560028,-0.187225560028,-0.352293050866,-1.1658486023,7.07703072645,1.20662575579
1,14.0,Monolingual,1.0,1.0,left,left,1000.99457947,6.0,50.0,56.0,0.62,736.0,2,,True,13.0,56.0,50.0,6.0,0.324657929691,0.60409219872,-0.187225560028,-0.187225560028,0.943447334361,0.3282486356,6.90874936419,0.41949430771
1,,Monolingual,1.0,,right,,,5.0,50.0,45.0,,,2,,False,14.0,,,5.0,,,-0.847442008548,-0.847442008548,,,,
1,15.0,Monolingual,1.0,1.0,right,right,1001.19681566,5.0,50.0,45.0,0.6,736.0,2,,True,14.0,50.0,45.0,5.0,0.32566901066,0.488302987349,-0.847442008548,-0.847442008548,-0.352293050866,-0.916832395986,6.90895137903,0.420439226589
1,16.0,Monolingual,1.0,1.0,right,right,800.718270501,5.0,50.0,45.0,0.64,686.0,2,,True,15.0,50.0,45.0,5.0,-0.676624602836,0.719881410091,-0.847442008548,-0.847442008548,-0.352293050866,-0.916832395986,6.68550916298,-0.624705599423
1,17.0,Monolingual,1.0,0.0,left,right,583.582707659,4.0,50.0,54.0,0.62,619.0,2,,True,16.0,50.0,54.0,4.0,-1.76219506987,0.60409219872,-1.50765845707,-1.50765845707,-0.352293050866,1.32431346087,6.36918618574,-2.10429763378
1,18.0,Monolingual,1.0,1.0,left,left,900.826693245,5.0,50.0,55.0,0.68,753.0,2,,True,17.0,55.0,50.0,5.0,-0.176131980576,0.951459832834,-0.847442008548,-0.847442008548,0.72749060349,0.3282486356,6.80331288977,-0.0736819042849
1,19.0,Monolingual,1.0,1.0,right,right,1218.11474821,5.0,55.0,50.0,0.62,619.0,2,,True,18.0,55.0,50.0,5.0,1.41015143383,0.60409219872,-0.847442008548,-0.847442008548,0.72749060349,0.3282486356,7.10505965419,1.33773029513
1,20.0,Monolingual,1.0,0.0,left,right,1001.18564739,4.0,50.0,54.0,0.6,636.0,2,,True,19.0,50.0,54.0,4.0,0.325613174831,0.488302987349,-1.50765845707,-1.50765845707,-0.352293050866,1.32431346087,6.90894022405,0.420387049468
1,21.0,Monolingual,1.0,1.0,right,right,951.125550037,5.0,55.0,50.0,0.44,653.0,2,,True,20.0,55.0,50.0,5.0,0.0753374367062,-0.438010703622,-0.847442008548,-0.847442008548,0.72749060349,0.3282486356,6.8576460728,0.180460066419
1,22.0,Monolingual,1.0,1.0,left,left,1434.71332869,5.0,50.0,55.0,0.5,586.0,2,,True,21.0,55.0,50.0,5.0,2.49303725453,-0.0906430695078,-0.847442008548,-0.847442008548,0.72749060349,0.3282486356,7.26872033729,2.10324864341
1,23.0,Monolingual,1.0,1.0,left,left,900.836654131,4.0,50.0,54.0,0.58,603.0,2,,True,22.0,54.0,50.0,4.0,-0.176082181071,0.372513775977,-1.50765845707,-1.50765845707,0.511533872619,0.3282486356,6.8033239472,-0.0736301834453
1,,Monolingual,1.0,,,,,,,,,,2,1.26840575703,,,,,,,,,,,,,
1,24.0,Monolingual,2.0,0.0,left,right,967.557693155,4.0,46.0,50.0,0.38,886.0,2,,True,23.0,46.0,50.0,4.0,0.157490028597,-0.785378337736,-1.50765845707,-1.50765845707,-1.21611997435,0.3282486356,6.87477505429,0.26058040671
1,25.0,Monolingual,2.0,1.0,right,right,984.240971362,5.0,50.0,45.0,0.4,903.0,2,,True,24.0,50.0,45.0,5.0,0.240898171776,-0.669589126364,-0.847442008548,-0.847442008548,-0.352293050866,-0.916832395986,6.89187075667,0.340545084819
1,26.0,Monolingual,2.0,0.0,right,left,867.451383325,5.0,55.0,50.0,0.62,603.0,2,,True,25.0,50.0,55.0,5.0,-0.342992030138,0.60409219872,-0.847442008548,-0.847442008548,-0.352293050866,1.57332966719,6.76555946797,-0.250272497365
1,27.0,Monolingual,2.0,1.0,left,left,950.878338936,6.0,50.0,56.0,0.64,803.0,2,,True,26.0,56.0,50.0,6.0,0.0741015034171,0.719881410091,-0.187225560028,-0.187225560028,0.943447334361,0.3282486356,6.85738612475,0.179244166551
1,28.0,Monolingual,2.0,1.0,left,left,834.339885987,6.0,44.0,50.0,0.64,1270.0,2,,True,27.0,50.0,44.0,6.0,-0.508533147212,0.719881410091,-0.187225560028,-0.187225560028,-0.352293050866,-1.1658486023,6.72664085649,-0.432313233194
1,29.0,Monolingual,2.0,0.0,right,left,1334.42470445,5.0,50.0,45.0,0.4,1003.0,2,,True,28.0,45.0,50.0,5.0,1.99164371388,-0.669589126364,-0.847442008548,-0.847442008548,-1.43207670522,0.3282486356,7.19625554496,1.76429656842
1,30.0,Monolingual,2.0,0.0,right,left,1251.25401529,6.0,56.0,50.0,0.38,669.0,2,,True,29.0,50.0,56.0,6.0,1.57583138589,-0.785378337736,-0.187225560028,-0.187225560028,-0.352293050866,1.8223458735,7.13190153965,1.46328247684
1,31.0,Monolingual,2.0,1.0,left,left,1017.8776791,7.0,50.0,57.0,0.62,536.0,2,,True,30.0,57.0,50.0,7.0,0.409065081198,0.60409219872,0.472990888492,0.472990888492,1.15940406523,0.3282486356,6.92547503184,0.497728158569
1,32.0,Monolingual,2.0,0.0,left,right,1317.95935837,7.0,43.0,50.0,0.42,703.0,2,,True,31.0,43.0,50.0,7.0,1.90932512359,-0.553799914993,0.472990888492,0.472990888492,-1.86399016696,0.3282486356,7.18383987875,1.70622263088
1,33.0,Monolingual,2.0,1.0,left,left,933.980750737,8.0,42.0,50.0,0.66,603.0,2,,True,32.0,50.0,42.0,8.0,-0.0103780837721,0.835670621463,1.13320733701,1.13320733701,-0.352293050866,-1.66388101494,6.83945582853,0.0953756986585
1,34.0,Monolingual,2.0,1.0,right,right,1034.55854255,8.0,50.0,42.0,0.38,603.0,2,,True,33.0,50.0,42.0,8.0,0.492461151786,-0.785378337736,1.13320733701,1.13320733701,-0.352293050866,-1.66388101494,6.94173008577,0.573760726716
1,35.0,Monolingual,2.0,1.0,right,right,934.442573676,7.0,57.0,50.0,0.4,619.0,2,,True,34.0,57.0,50.0,7.0,-0.00806919739249,-0.669589126364,0.472990888492,0.472990888492,1.15940406523,0.3282486356,6.83995017362,0.0976879842346
1,36.0,Monolingual,2.0,0.0,left,right,1234.76995483,7.0,50.0,57.0,0.4,703.0,2,,True,35.0,50.0,57.0,7.0,1.49341923295,-0.669589126364,0.472990888492,0.472990888492,-0.352293050866,2.07136207982,7.11863996032,1.40125180392
1,37.0,Monolingual,2.0,1.0,right,right,700.633693516,8.0,50.0,42.0,0.66,820.0,2,,True,36.0,50.0,42.0,8.0,-1.17699800809,0.835670621463,1.13320733701,1.13320733701,-0.352293050866,-1.66388101494,6.55198520198,-1.24926025813
1,38.0,Monolingual,2.0,0.0,left,right,817.377702946,8.0,42.0,50.0,0.38,936.0,2,,True,37.0,42.0,50.0,8.0,-0.593335676677,-0.785378337736,1.13320733701,1.13320733701,-2.07994689783,0.3282486356,6.70610129274,-0.52838647829
1,39.0,Monolingual,2.0,1.0,right,right,884.401492563,9.0,59.0,50.0,0.62,536.0,2,,True,38.0,59.0,50.0,9.0,-0.258249863719,0.60409219872,1.79342378553,1.79342378553,1.59131752697,0.3282486356,6.78491113664,-0.159755598919
1,40.0,Monolingual,2.0,1.0,left,left,733.98244107,9.0,50.0,59.0,0.62,603.0,2,,True,39.0,59.0,50.0,9.0,-1.01027075723,0.60409219872,1.79342378553,1.79342378553,1.59131752697,0.3282486356,6.59848510608,-1.03175823439
1,41.0,Monolingual,2.0,0.0,left,right,1017.61899789,8.0,42.0,50.0,0.4,853.0,2,,True,40.0,42.0,50.0,8.0,0.407771803035,-0.669589126364,1.13320733701,1.13320733701,-2.07994689783,0.3282486356,6.92522086172,0.496539284844
1,42.0,Monolingual,2.0,1.0,right,right,1151.34873427,9.0,50.0,41.0,0.66,819.0,2,,True,41.0,50.0,41.0,9.0,1.07635437182,0.835670621463,1.79342378553,1.79342378553,-0.352293050866,-1.91289722125,7.04868934656,1.0740597301
1,43.0,Monolingual,2.0,1.0,left,left,951.122833432,9.0,50.0,59.0,0.44,719.0,2,,True,42.0,59.0,50.0,9.0,0.0753238550243,-0.438010703622,1.79342378553,1.79342378553,1.59131752697,0.3282486356,6.85764321659,0.180446706601
1,44.0,Monolingual,2.0,1.0,right,right,1000.9713374,8.0,58.0,50.0,0.64,719.0,2,,True,43.0,58.0,50.0,8.0,0.324541730831,0.719881410091,1.13320733701,1.13320733701,1.3753607961,0.3282486356,6.90872614494,0.419385700322
1,45.0,Monolingual,2.0,1.0,left,left,800.95823732,8.0,42.0,50.0,0.42,1070.0,2,,True,44.0,50.0,42.0,8.0,-0.675424887375,-0.553799914993,1.13320733701,1.13320733701,-0.352293050866,-1.66388101494,6.68580880753,-0.623304020259
1,46.0,Monolingual,2.0,1.0,right,right,934.443177366,7.0,50.0,43.0,0.66,1020.0,2,,True,45.0,50.0,43.0,7.0,-0.00806617924094,0.835670621463,0.472990888492,0.472990888492,-0.352293050866,-1.41486480862,6.83995081966,0.0976910060816
1,47.0,Monolingual,2.0,1.0,left,left,817.445014396,7.0,50.0,57.0,0.6,603.0,2,,True,46.0,57.0,50.0,7.0,-0.592999152705,0.488302987349,0.472990888492,0.472990888492,1.15940406523,0.3282486356,6.70618363983,-0.52800130202
1,48.0,Monolingual,2.0,0.0,right,left,1234.57103893,6.0,56.0,50.0,0.38,786.0,2,,True,47.0,50.0,56.0,6.0,1.49242475179,-0.785378337736,-0.187225560028,-0.187225560028,-0.352293050866,1.8223458735,7.11847885183,1.40049822338
1,,Monolingual,2.0,,,,,,,,,,2,0.300644016615,,,,,,,,,,,,,
1,49.0,Monolingual,3.0,1.0,left,left,750.909308237,7.0,43.0,50.0,0.42,820.0,2,,True,48.0,50.0,43.0,7.0,-0.925644789671,-0.553799914993,0.472990888492,0.472990888492,-0.352293050866,-1.41486480862,6.62128488314,-0.925112903683
1,50.0,Monolingual,3.0,0.0,right,left,834.332038015,7.0,57.0,50.0,0.66,719.0,2,,True,49.0,50.0,57.0,7.0,-0.508572383192,0.835670621463,0.472990888492,0.472990888492,-0.352293050866,2.07136207982,6.72663145024,-0.432357230667
1,51.0,Monolingual,3.0,1.0,left,left,934.202003164,8.0,50.0,58.0,0.68,719.0,2,,True,50.0,58.0,50.0,8.0,-0.00927193101958,0.951459832834,1.13320733701,1.13320733701,1.3753607961,0.3282486356,6.83969269232,0.0964836225493
1,52.0,Monolingual,3.0,1.0,right,right,650.592914248,8.0,58.0,50.0,0.34,686.0,2,,True,51.0,58.0,50.0,8.0,-1.42717716534,-1.01695676048,1.13320733701,1.13320733701,1.3753607961,0.3282486356,6.47788412288,-1.59586601955
1,53.0,Monolingual,3.0,1.0,left,left,1034.29744657,7.0,50.0,57.0,0.6,486.0,2,,True,52.0,57.0,50.0,7.0,0.491155800967,0.488302987349,0.472990888492,0.472990888492,1.15940406523,0.3282486356,6.94147767963,0.572580103913
1,54.0,Monolingual,3.0,1.0,right,right,1034.5549204,7.0,50.0,43.0,0.42,986.0,2,,True,53.0,50.0,43.0,7.0,0.492443042827,-0.553799914993,0.472990888492,0.472990888492,-0.352293050866,-1.41486480862,6.94172658461,0.573744350131
1,55.0,Monolingual,3.0,1.0,right,right,750.664813741,6.0,50.0,44.0,0.64,653.0,2,,True,54.0,50.0,44.0,6.0,-0.926867141278,0.719881410091,-0.187225560028,-0.187225560028,-0.352293050866,-1.1658486023,6.62095923221,-0.92663612692
1,56.0,Monolingual,3.0,1.0,right,right,1117.73707967,6.0,56.0,50.0,0.36,619.0,2,,True,55.0,56.0,50.0,6.0,0.908312715699,-0.901167549107,-0.187225560028,-0.187225560028,0.943447334361,0.3282486356,7.01906145582,0.935476085248
1,57.0,Monolingual,3.0,0.0,left,right,667.472995432,5.0,50.0,55.0,0.4,686.0,2,,True,56.0,50.0,55.0,5.0,-1.34278510457,-0.669589126364,-0.847442008548,-0.847442008548,-0.352293050866,1.57332966719,6.50349893317,-1.4760534482
1,58.0,Monolingual,3.0,0.0,left,right,767.59590674,6.0,50.0,56.0,0.42,569.0,2,,True,57.0,50.0,56.0,6.0,-0.842220046653,-0.553799914993,-0.187225560028,-0.187225560028,-0.352293050866,1.8223458735,6.64326343158,-0.822308847264
1,59.0,Monolingual,3.0,1.0,left,left,634.114890679,7.0,43.0,50.0,0.62,519.0,2,,True,58.0,50.0,43.0,7.0,-1.5095591368,0.60409219872,0.472990888492,0.472990888492,-0.352293050866,-1.41486480862,6.4522301536,-1.71586175593
1,60.0,Monolingual,3.0,1.0,right,right,1017.6271477,7.0,50.0,43.0,0.68,619.0,2,,True,59.0,50.0,43.0,7.0,0.407812548055,0.951459832834,0.472990888492,0.472990888492,-0.352293050866,-1.41486480862,6.92522887039,0.49657674519
1,61.0,Monolingual,3.0,0.0,left,right,950.895845948,6.0,44.0,50.0,0.46,603.0,2,,True,60.0,44.0,50.0,6.0,0.074189029822,-0.32222149225,-0.187225560028,-0.187225560028,-1.64803343609,0.3282486356,6.85740453599,0.179330284627
1,62.0,Monolingual,3.0,1.0,left,left,1268.15884777,7.0,50.0,57.0,0.68,536.0,2,,True,61.0,57.0,50.0,7.0,1.6603471909,0.951459832834,0.472990888492,0.472990888492,1.15940406523,0.3282486356,7.14532140142,1.52605351153
1,63.0,Monolingual,3.0,1.0,right,right,900.834843062,7.0,50.0,43.0,0.42,536.0,2,,True,62.0,50.0,43.0,7.0,-0.17609123552,-0.553799914993,0.472990888492,0.472990888492,-0.352293050866,-1.41486480862,6.80332193677,-0.0736395871856
1,64.0,Monolingual,3.0,0.0,right,left,1301.26581744,6.0,50.0,44.0,0.38,769.0,2,,True,63.0,44.0,50.0,6.0,1.82586567187,-0.785378337736,-0.187225560028,-0.187225560028,-1.64803343609,0.3282486356,7.17109277543,1.64659840534
1,65.0,Monolingual,3.0,0.0,left,right,1301.05030006,7.0,50.0,57.0,0.42,903.0,2,,True,64.0,50.0,57.0,7.0,1.82478819152,-0.553799914993,0.472990888492,0.472990888492,-0.352293050866,2.07136207982,7.17092714038,1.64582365194
1,66.0,Monolingual,3.0,1.0,left,left,934.219510178,8.0,50.0,58.0,0.34,836.0,2,,True,65.0,58.0,50.0,8.0,-0.00918440460467,-1.01695676048,1.13320733701,1.13320733701,1.3753607961,0.3282486356,6.83971143222,0.0965712779058
1,67.0,Monolingual,3.0,1.0,left,left,1418.32374573,8.0,42.0,50.0,0.62,786.0,2,,True,66.0,50.0,42.0,8.0,2.41109744239,0.60409219872,1.13320733701,1.13320733701,-0.352293050866,-1.66388101494,7.25723099255,2.04950754908
1,68.0,Monolingual,3.0,1.0,left,left,650.552165165,7.0,50.0,57.0,0.68,452.0,2,,True,67.0,57.0,50.0,7.0,-1.42738089061,0.951459832834,0.472990888492,0.472990888492,1.15940406523,0.3282486356,6.47782148715,-1.59615899643
1,69.0,Monolingual,3.0,1.0,left,left,1217.87598877,7.0,50.0,57.0,0.62,419.0,2,,True,68.0,57.0,50.0,7.0,1.40895775467,0.60409219872,0.472990888492,0.472990888492,1.15940406523,0.3282486356,7.10486362763,1.33681338629
1,70.0,Monolingual,3.0,1.0,right,right,917.553738986,6.0,50.0,44.0,0.64,619.0,2,,True,69.0,50.0,44.0,6.0,-0.0925050213643,0.719881410091,-0.187225560028,-0.187225560028,-0.352293050866,-1.1658486023,6.82171114932,0.0123754492194
1,71.0,Monolingual,3.0,0.0,left,right,717.521018982,6.0,44.0,50.0,0.42,686.0,2,,True,70.0,44.0,50.0,6.0,-1.09256972949,-0.553799914993,-0.187225560028,-0.187225560028,-1.64803343609,0.3282486356,6.57580224195,-1.13785670808
1,72.0,Monolingual,3.0,1.0,left,left,1034.33668643,7.0,50.0,57.0,0.6,519.0,2,,True,71.0,57.0,50.0,7.0,0.491351980867,0.488302987349,0.472990888492,0.472990888492,1.15940406523,0.3282486356,6.94151561757,0.57275755759
1,73.0,Monolingual,3.0,1.0,left,left,1434.98981877,7.0,43.0,50.0,0.62,569.0,2,,True,72.0,50.0,43.0,7.0,2.49441956824,0.60409219872,0.472990888492,0.472990888492,-0.352293050866,-1.41486480862,7.26891303323,2.1041499734
1,,Monolingual,3.0,,,,,,,,,,2,0.984732978806,,,,,,,,,,,,,
1,74.0,Monolingual,4.0,0.0,right,left,617.089622023,6.0,56.0,50.0,0.64,686.0,2,,True,73.0,50.0,56.0,6.0,-1.59467706315,0.719881410091,-0.187225560028,-0.187225560028,-0.352293050866,1.8223458735,6.42501426785,-1.84316331371
1,,Monolingual,4.0,,left,,,7.0,43.0,50.0,,,2,,False,74.0,,,7.0,,,0.472990888492,0.472990888492,,,,
1,75.0,Monolingual,4.0,1.0,right,right,550.72838231,7.0,50.0,43.0,0.34,819.0,2,,True,74.0,50.0,43.0,7.0,-1.92645045414,-1.01695676048,0.472990888492,0.472990888492,-0.352293050866,-1.41486480862,6.31124173355,-2.37533121678
1,76.0,Monolingual,4.0,0.0,right,left,817.18874794,7.0,50.0,43.0,0.38,753.0,2,,True,75.0,43.0,50.0,7.0,-0.594280358292,-0.785378337736,0.472990888492,0.472990888492,-1.86399016696,0.3282486356,6.70587009381,-0.52946790493
1,77.0,Monolingual,4.0,1.0,right,right,1034.30952037,8.0,58.0,50.0,0.3,1320.0,2,,True,76.0,58.0,50.0,8.0,0.491216163998,-1.24853518322,1.13320733701,1.13320733701,1.3753607961,0.3282486356,6.94148935299,0.572634705748
1,78.0,Monolingual,4.0,1.0,right,right,717.289201977,8.0,58.0,50.0,0.64,920.0,2,,True,77.0,58.0,50.0,8.0,-1.09372869991,0.719881410091,1.13320733701,1.13320733701,1.3753607961,0.3282486356,6.57547910931,-1.13936815213
1,79.0,Monolingual,4.0,1.0,right,right,784.295484578,7.0,57.0,50.0,0.62,602.0,2,,True,78.0,57.0,50.0,7.0,-0.758730413377,0.60409219872,0.472990888492,0.472990888492,1.15940406523,0.3282486356,6.66478584294,-0.721638359494
1,80.0,Monolingual,4.0,1.0,right,right,1101.29980519,7.0,50.0,43.0,0.62,920.0,2,,True,79.0,50.0,43.0,7.0,0.826134469535,0.60409219872,0.472990888492,0.472990888492,-0.352293050866,-1.41486480862,7.00424640228,0.866179079405
1,81.0,Monolingual,4.0,1.0,left,left,1401.61692361,6.0,50.0,56.0,0.66,1237.0,2,,True,80.0,56.0,50.0,6.0,2.32757159128,0.835670621463,-0.187225560028,-0.187225560028,0.943447334361,0.3282486356,7.2453817946,1.99408325127
1,82.0,Monolingual,4.0,1.0,left,left,767.340243976,6.0,44.0,50.0,0.66,953.0,2,,True,81.0,50.0,44.0,6.0,-0.843498234079,0.835670621463,-0.187225560028,-0.187225560028,-0.352293050866,-1.1658486023,6.64293030662,-0.823867030077
1,83.0,Monolingual,4.0,0.0,right,left,850.999922124,5.0,55.0,50.0,0.34,670.0,2,,True,82.0,50.0,55.0,5.0,-0.425241202892,-1.01695676048,-0.847442008548,-0.847442008548,-0.352293050866,1.57332966719,6.74641203706,-0.339834079337
1,84.0,Monolingual,4.0,1.0,left,left,1034.34725101,6.0,50.0,56.0,0.32,836.0,2,,True,83.0,56.0,50.0,6.0,0.491404798544,-1.13274597185,-0.187225560028,-0.187225560028,0.943447334361,0.3282486356,6.94152583139,0.572805332441
1,85.0,Monolingual,4.0,1.0,right,right,850.799798851,6.0,50.0,44.0,0.68,970.0,2,,True,84.0,50.0,44.0,6.0,-0.426241720321,0.951459832834,-0.187225560028,-0.187225560028,-0.352293050866,-1.1658486023,6.7461768469,-0.340934174846
1,86.0,Monolingual,4.0,1.0,left,left,667.483258163,5.0,50.0,55.0,0.64,703.0,2,,True,85.0,55.0,50.0,5.0,-1.34273379599,0.719881410091,-0.847442008548,-0.847442008548,0.72749060349,0.3282486356,6.50351430856,-1.47598153028
1,87.0,Monolingual,4.0,0.0,left,right,934.185703532,5.0,50.0,55.0,0.72,886.0,2,,True,86.0,50.0,55.0,5.0,-0.00935342112139,1.18303825558,-0.847442008548,-0.847442008548,-0.352293050866,1.57332966719,6.83967524452,0.0964020109217
1,88.0,Monolingual,4.0,1.0,right,right,934.195664418,6.0,50.0,44.0,0.5,486.0,2,,True,87.0,50.0,44.0,6.0,-0.00930362161584,-0.0906430695078,-0.187225560028,-0.187225560028,-0.352293050866,-1.1658486023,6.8396859071,0.0964518848622
1,89.0,Monolingual,4.0,1.0,right,right,700.855247787,6.0,50.0,44.0,0.72,703.0,2,,True,88.0,50.0,44.0,6.0,-1.17589034627,1.18303825558,-0.187225560028,-0.187225560028,-0.352293050866,-1.1658486023,6.55230137183,-1.24778138236
1,90.0,Monolingual,4.0,1.0,left,left,650.791830141,5.0,50.0,55.0,0.72,719.0,2,,True,89.0,55.0,50.0,5.0,-1.42618268421,1.18303825558,-0.847442008548,-0.847442008548,0.72749060349,0.3282486356,6.4781898217,-1.59443612169
1,91.0,Monolingual,4.0,0.0,right,left,583.81603389,5.0,50.0,45.0,0.38,636.0,2,,True,90.0,45.0,50.0,5.0,-1.76102855407,-0.785378337736,-0.847442008548,-0.847442008548,-1.43207670522,0.3282486356,6.36958592274,-2.10242787496
1,92.0,Monolingual,4.0,1.0,right,right,850.8182114,6.0,56.0,50.0,0.66,703.0,2,,True,91.0,56.0,50.0,6.0,-0.426149666679,0.835670621463,-0.187225560028,-0.187225560028,0.943447334361,0.3282486356,6.74619848813,-0.340832948611
1,93.0,Monolingual,4.0,0.0,right,left,734.216370989,6.0,50.0,44.0,0.38,753.0,2,,True,92.0,44.0,50.0,6.0,-1.00910122328,-0.785378337736,-0.187225560028,-0.187225560028,-1.64803343609,0.3282486356,6.59880376854,-1.0302676995
1,94.0,Monolingual,4.0,1.0,left,left,967.809130088,7.0,43.0,50.0,0.34,886.0,2,,True,93.0,50.0,43.0,7.0,0.158747088957,-1.01695676048,0.472990888492,0.472990888492,-0.352293050866,-1.41486480862,6.87503488817,0.261795772539
1,95.0,Monolingual,4.0,1.0,right,right,733.965839592,7.0,50.0,43.0,0.36,553.0,2,,True,94.0,50.0,43.0,7.0,-1.01035375641,-0.901167549107,0.472990888492,0.472990888492,-0.352293050866,-1.41486480862,6.59846248747,-1.03186403234
1,96.0,Monolingual,4.0,1.0,left,left,1084.6153196,6.0,44.0,50.0,0.34,903.0,2,,True,95.0,50.0,44.0,6.0,0.742720290038,-1.01695676048,-0.187225560028,-0.187225560028,-0.352293050866,-1.1658486023,6.98898065896,0.794773984493
1,97.0,Monolingual,4.0,0.0,right,left,900.817637894,6.0,50.0,44.0,0.66,536.0,2,,True,96.0,44.0,50.0,6.0,-0.176177252854,0.835670621463,-0.187225560028,-0.187225560028,-1.64803343609,0.3282486356,6.80330283745,-0.0737289237268
1,,Monolingual,4.0,,,,,,,,,,2,0.534248547674,,,,,,,,,,,,,
1,98.0,Monolingual,5.0,1.0,right,right,984.231010474,7.0,50.0,43.0,0.36,486.0,2,,True,97.0,50.0,43.0,7.0,0.240848372261,-0.901167549107,0.472990888492,0.472990888492,-0.352293050866,-1.41486480862,6.89186063624,0.340497746802
1,99.0,Monolingual,5.0,1.0,left,left,900.828504316,7.0,50.0,57.0,0.68,936.0,2,,True,98.0,57.0,50.0,7.0,-0.176122926116,0.951459832834,0.472990888492,0.472990888492,1.15940406523,0.3282486356,6.80331490022,-0.0736725004491
1,100.0,Monolingual,5.0,1.0,right,right,684.081416064,6.0,56.0,50.0,0.4,502.0,2,,True,99.0,56.0,50.0,6.0,-1.25975121226,-0.669589126364,-0.187225560028,-0.187225560028,0.943447334361,0.3282486356,6.52807693987,-1.36109049721
1,101.0,Monolingual,5.0,1.0,left,left,850.558322803,6.0,50.0,56.0,0.64,636.0,2,,True,100.0,56.0,50.0,6.0,-0.42744898118,0.719881410091,-0.187225560028,-0.187225560028,0.943447334361,0.3282486356,6.74589298421,-0.342261934796
1,102.0,Monolingual,5.0,1.0,left,left,1201.15739469,5.0,45.0,50.0,0.38,736.0,2,,True,101.0,50.0,45.0,5.0,1.32537304958,-0.785378337736,-0.847442008548,-0.847442008548,-0.352293050866,-0.916832395986,7.09104086652,1.27215780104
1,103.0,Monolingual,5.0,0.0,left,right,867.404295495,5.0,45.0,50.0,0.3,553.0,2,,True,102.0,45.0,50.0,5.0,-0.343227446008,-1.24853518322,-0.847442008548,-0.847442008548,-1.43207670522,0.3282486356,6.76550518354,-0.250526411317
1,104.0,Monolingual,5.0,0.0,left,right,700.835627858,6.0,50.0,56.0,0.28,636.0,2,,True,103.0,50.0,56.0,6.0,-1.17598843621,-1.36432439459,-0.187225560028,-0.187225560028,-0.352293050866,1.8223458735,6.55227337717,-1.24791232661
1,105.0,Monolingual,5.0,1.0,left,left,1034.50179568,7.0,43.0,50.0,0.66,503.0,2,,True,104.0,50.0,43.0,7.0,0.492177445491,0.835670621463,0.472990888492,0.472990888492,-0.352293050866,-1.41486480862,6.94167523298,0.573504154281
1,106.0,Monolingual,5.0,1.0,right,right,917.803968538,7.0,57.0,50.0,0.32,452.0,2,,True,105.0,57.0,50.0,7.0,-0.0912539973124,-1.13274597185,0.472990888492,0.472990888492,1.15940406523,0.3282486356,6.82198382592,0.0136508865429
1,107.0,Monolingual,5.0,1.0,right,right,951.096874756,6.0,50.0,44.0,0.34,903.0,2,,True,106.0,50.0,44.0,6.0,0.0751940744777,-1.01695676048,-0.187225560028,-0.187225560028,-0.352293050866,-1.1658486023,6.85761592356,0.180319044173
1,108.0,Monolingual,5.0,1.0,right,right,967.380510105,6.0,50.0,44.0,0.3,502.0,2,,True,107.0,50.0,44.0,6.0,0.156604200942,-1.24853518322,-0.187225560028,-0.187225560028,-0.352293050866,-1.1658486023,6.87459191351,0.259723770721
1,109.0,Monolingual,5.0,0.0,left,right,917.521743409,5.0,45.0,50.0,0.34,619.0,2,,True,108.0,45.0,50.0,5.0,-0.0926649834314,-1.01695676048,-0.847442008548,-0.847442008548,-1.43207670522,0.3282486356,6.82167627819,0.0122123404713
1,110.0,Monolingual,5.0,1.0,left,left,1051.00275947,6.0,50.0,56.0,0.64,502.0,2,,True,109.0,56.0,50.0,6.0,0.574674106718,0.719881410091,-0.187225560028,-0.187225560028,0.943447334361,0.3282486356,6.95749999644,0.647524050547
1,111.0,Monolingual,5.0,1.0,right,right,833.866894782,6.0,50.0,44.0,0.32,503.0,2,,True,110.0,50.0,44.0,6.0,-0.510897869401,-1.13274597185,-0.187225560028,-0.187225560028,-0.352293050866,-1.1658486023,6.72607379104,-0.434965666274
1,112.0,Monolingual,5.0,1.0,left,left,750.923796801,5.0,45.0,50.0,0.32,603.0,2,,True,111.0,50.0,45.0,5.0,-0.925572354014,-1.13274597185,-0.847442008548,-0.847442008548,-0.352293050866,-0.916832395986,6.62130417764,-0.925022654161
1,113.0,Monolingual,5.0,1.0,right,right,984.485465859,5.0,50.0,45.0,0.66,1403.0,2,,True,112.0,50.0,45.0,5.0,0.242120523388,0.835670621463,-0.847442008548,-0.847442008548,-0.352293050866,-0.916832395986,6.892119135,0.341706867661
1,114.0,Monolingual,5.0,1.0,right,right,1067.92358974,4.0,54.0,50.0,0.32,753.0,2,,True,113.0,54.0,50.0,4.0,0.659269892772,-1.13274597185,-1.50765845707,-1.50765845707,0.511533872619,0.3282486356,6.97347147177,0.72223018757
1,115.0,Monolingual,5.0,1.0,right,right,1301.51453776,4.0,54.0,50.0,0.3,786.0,2,,True,114.0,54.0,50.0,4.0,1.82710915051,-1.24853518322,-1.50765845707,-1.50765845707,0.511533872619,0.3282486356,7.17128389438,1.64749235896
1,116.0,Monolingual,5.0,1.0,right,right,684.147520133,3.0,50.0,47.0,0.34,519.0,2,,True,115.0,50.0,47.0,3.0,-1.25942072459,-1.01695676048,-2.16787490559,-2.16787490559,-0.352293050866,-0.418799983351,6.52817356708,-1.36063852611
1,117.0,Monolingual,5.0,1.0,right,right,767.342658735,3.0,50.0,47.0,0.26,703.0,2,,True,116.0,50.0,47.0,3.0,-0.843486161478,-1.48011360596,-2.16787490559,-2.16787490559,-0.352293050866,-0.418799983351,6.64293345354,-0.823852310464
1,118.0,Monolingual,5.0,0.0,left,right,1101.3019181,2.0,48.0,50.0,0.32,653.0,2,,True,117.0,48.0,50.0,2.0,0.826145033041,-1.13274597185,-2.82809135411,-2.82809135411,-0.784206512608,0.3282486356,7.00424832084,0.866188053409
1,119.0,Monolingual,5.0,1.0,right,right,901.067867448,3.0,53.0,50.0,0.72,736.0,2,,True,118.0,53.0,50.0,3.0,-0.174926228792,1.18303825558,-2.16787490559,-2.16787490559,0.295577141748,0.3282486356,6.80358057935,-0.072429793602
1,120.0,Monolingual,5.0,1.0,left,left,817.63276202,3.0,50.0,53.0,0.66,669.0,2,,True,119.0,53.0,50.0,3.0,-0.592060507403,0.835670621463,-2.16787490559,-2.16787490559,0.295577141748,0.3282486356,6.70641328961,-0.52692712149
1,121.0,Monolingual,5.0,0.0,left,right,967.81818544,2.0,50.0,52.0,0.76,1404.0,2,,True,120.0,50.0,52.0,2.0,0.15879236124,1.41461667832,-2.82809135411,-2.82809135411,-0.352293050866,0.826281048234,6.87504424468,0.261839537328
1,122.0,Monolingual,5.0,1.0,right,right,884.382476324,3.0,53.0,50.0,0.66,903.0,2,,True,121.0,53.0,50.0,3.0,-0.258344935512,0.835670621463,-2.16787490559,-2.16787490559,0.295577141748,0.3282486356,6.78488963459,-0.159856174158
1,,Monolingual,5.0,,,,,,,,,,2,0.133809725327,,,,,,,,,,,,,
1,123.0,Monolingual,6.0,0.0,right,left,1234.54357103,3.0,50.0,47.0,0.66,836.0,2,,True,122.0,47.0,50.0,3.0,1.49228742587,0.835670621463,-2.16787490559,-2.16787490559,-1.00016324348,0.3282486356,7.11845660264,1.4003941534
1,124.0,Monolingual,6.0,1.0,left,left,867.758057906,4.0,46.0,50.0,0.5,569.0,2,,True,123.0,50.0,46.0,4.0,-0.341458808846,-0.0906430695078,-1.50765845707,-1.50765845707,-0.352293050866,-0.667816189668,6.76591294068,-0.248619138518
1,125.0,Monolingual,6.0,1.0,right,right,817.397926567,4.0,50.0,46.0,0.34,886.0,2,,True,124.0,50.0,46.0,4.0,-0.59323456857,-1.01695676048,-1.50765845707,-1.50765845707,-0.352293050866,-0.667816189668,6.70612603451,-0.528270749342
1,126.0,Monolingual,6.0,0.0,left,right,967.557089465,3.0,47.0,50.0,0.32,603.0,2,,True,125.0,47.0,50.0,3.0,0.157487010445,-1.13274597185,-2.16787490559,-2.16787490559,-1.00016324348,0.3282486356,6.87477443036,0.260577488285
1,127.0,Monolingual,6.0,1.0,left,left,901.049454898,4.0,50.0,54.0,0.28,1587.0,2,,True,126.0,54.0,50.0,4.0,-0.17501828244,-1.36432439459,-1.50765845707,-1.50765845707,0.511533872619,0.3282486356,6.803560145,-0.0725253747228
1,128.0,Monolingual,6.0,0.0,right,left,1217.84701164,4.0,54.0,50.0,0.72,836.0,2,,True,127.0,50.0,54.0,4.0,1.40881288334,1.18303825558,-1.50765845707,-1.50765845707,-0.352293050866,1.32431346087,7.10483983417,1.33670209306
1,129.0,Monolingual,6.0,1.0,left,left,901.080544938,5.0,45.0,50.0,0.36,703.0,2,,True,128.0,50.0,45.0,5.0,-0.17486284761,-0.901167549107,-0.847442008548,-0.847442008548,-0.352293050866,-0.916832395986,6.80359464866,-0.0723639848032
1,130.0,Monolingual,6.0,0.0,right,left,934.452232717,5.0,50.0,45.0,0.24,1036.0,2,,True,129.0,45.0,50.0,5.0,-0.00802090696271,-1.59590281733,-0.847442008548,-0.847442008548,-1.43207670522,0.3282486356,6.83996051025,0.0977363335571
1,131.0,Monolingual,6.0,1.0,right,right,1034.58148277,6.0,50.0,44.0,0.3,636.0,2,,True,130.0,50.0,44.0,6.0,0.492575841545,-1.24853518322,-0.187225560028,-0.187225560028,-0.352293050866,-1.1658486023,6.94175225945,0.573864443476
1,132.0,Monolingual,6.0,1.0,left,left,750.685037359,6.0,44.0,50.0,0.32,753.0,2,,True,131.0,50.0,44.0,6.0,-0.926766033187,-1.13274597185,-0.187225560028,-0.187225560028,-0.352293050866,-1.1658486023,6.6209861728,-0.926510113096
1,133.0,Monolingual,6.0,1.0,right,right,867.480058607,5.0,55.0,50.0,0.26,653.0,2,,True,132.0,55.0,50.0,5.0,-0.342848667904,-1.48011360596,-0.847442008548,-0.847442008548,0.72749060349,0.3282486356,6.76559252436,-0.250117877026
1,134.0,Monolingual,6.0,0.0,right,left,784.022918491,5.0,55.0,50.0,0.26,653.0,2,,True,133.0,50.0,55.0,5.0,-0.760093109061,-1.48011360596,-0.847442008548,-0.847442008548,-0.352293050866,1.57332966719,6.66443825269,-0.723264203318
1,135.0,Monolingual,6.0,1.0,right,right,800.706800388,6.0,50.0,44.0,0.74,686.0,2,,True,134.0,50.0,44.0,6.0,-0.67668194773,1.29882746695,-0.187225560028,-0.187225560028,-0.352293050866,-1.1658486023,6.6854948381,-0.624772603668
1,136.0,Monolingual,6.0,1.0,left,left,1201.17761831,6.0,44.0,50.0,0.74,870.0,2,,True,135.0,50.0,44.0,6.0,1.32547415768,1.29882746695,-0.187225560028,-0.187225560028,-0.352293050866,-1.1658486023,7.09105770316,1.27223655394
1,137.0,Monolingual,6.0,0.0,left,right,950.876527864,5.0,45.0,50.0,0.7,1370.0,2,,True,136.0,45.0,50.0,5.0,0.0740924489525,1.06724904421,-0.847442008548,-0.847442008548,-1.43207670522,0.3282486356,6.85738422011,0.179235257685
1,138.0,Monolingual,6.0,1.0,right,right,884.376741267,6.0,56.0,50.0,0.34,1003.0,2,,True,137.0,56.0,50.0,6.0,-0.258373607962,-1.01695676048,-0.187225560028,-0.187225560028,0.943447334361,0.3282486356,6.78488314975,-0.159886506802
1,139.0,Monolingual,6.0,1.0,right,right,917.528384001,6.0,50.0,44.0,0.32,736.0,2,,True,138.0,50.0,44.0,6.0,-0.0926317837543,-1.13274597185,-0.187225560028,-0.187225560028,-0.352293050866,-1.1658486023,6.82168351569,0.0122461937008
1,140.0,Monolingual,6.0,1.0,right,right,1034.57152188,5.0,55.0,50.0,0.72,586.0,2,,True,139.0,55.0,50.0,5.0,0.49252604202,1.18303825558,-0.847442008548,-0.847442008548,0.72749060349,0.3282486356,6.94174263146,0.573819408827
1,141.0,Monolingual,6.0,0.0,left,right,1267.91284405,5.0,50.0,55.0,0.3,603.0,2,,True,140.0,50.0,55.0,5.0,1.65911729392,-1.24853518322,-0.847442008548,-0.847442008548,-0.352293050866,1.57332966719,7.14512739766,1.52514606427
1,142.0,Monolingual,6.0,1.0,right,right,650.799979958,6.0,50.0,44.0,0.68,586.0,2,,True,141.0,50.0,44.0,6.0,-1.42614193916,0.951459832834,-0.187225560028,-0.187225560028,-0.352293050866,-1.1658486023,6.47820234455,-1.59437754642
1,143.0,Monolingual,6.0,1.0,left,left,1200.95757326,6.0,50.0,56.0,0.7,819.0,2,,True,142.0,56.0,50.0,6.0,1.32437404122,1.06724904421,-0.187225560028,-0.187225560028,0.943447334361,0.3282486356,7.09087449528,1.27137960411
1,144.0,Monolingual,6.0,0.0,right,left,1184.4729091,5.0,50.0,45.0,0.3,486.0,2,,True,143.0,45.0,50.0,5.0,1.24195887008,-1.24853518322,-0.847442008548,-0.847442008548,-1.43207670522,0.3282486356,7.07705315217,1.20673065148
1,145.0,Monolingual,6.0,1.0,right,right,700.844381365,6.0,50.0,44.0,0.32,953.0,2,,True,144.0,50.0,44.0,6.0,-1.175944673,-1.13274597185,-0.187225560028,-0.187225560028,-0.352293050866,-1.1658486023,6.55228586719,-1.24785390487
1,146.0,Monolingual,6.0,0.0,left,right,917.546494704,6.0,50.0,56.0,0.32,853.0,2,,True,145.0,50.0,56.0,6.0,-0.0925412391929,-1.13274597185,-0.187225560028,-0.187225560028,-0.352293050866,1.8223458735,6.82170325407,0.0123385194328
1,147.0,Monolingual,6.0,1.0,right,right,867.695575978,7.0,50.0,43.0,0.32,603.0,2,,True,146.0,50.0,43.0,7.0,-0.341771187596,-1.13274597185,0.472990888492,0.472990888492,-0.352293050866,-1.41486480862,6.76584093422,-0.248955946711
1,,Monolingual,6.0,,,,,,,,,,2,2.38631156809,,,,,,,,,,,,,
1,148.0,Monolingual,7.0,1.0,left,left,1284.83367432,7.0,50.0,57.0,0.32,1270.0,2,,True,147.0,57.0,50.0,7.0,1.74371307997,-1.13274597185,0.472990888492,0.472990888492,1.15940406523,0.3282486356,7.15838455262,1.58715604236
1,149.0,Monolingual,7.0,1.0,right,right,600.486634601,6.0,56.0,50.0,0.3,569.0,2,,True,148.0,56.0,50.0,6.0,-1.6776837921,-1.24853518322,-0.187225560028,-0.187225560028,0.943447334361,0.3282486356,6.39774038415,-1.97073615529
1,150.0,Monolingual,7.0,0.0,right,left,934.206530841,6.0,50.0,44.0,0.76,519.0,2,,True,149.0,44.0,50.0,6.0,-0.00924929487297,1.41461667832,-0.187225560028,-0.187225560028,-1.64803343609,0.3282486356,6.83969753888,0.0965062922003
1,151.0,Monolingual,7.0,0.0,right,left,850.782291836,7.0,50.0,43.0,0.72,503.0,2,,True,150.0,43.0,50.0,7.0,-0.426329246741,1.18303825558,0.472990888492,0.472990888492,-1.86399016696,0.3282486356,6.74615626956,-0.34103042478
1,152.0,Monolingual,7.0,1.0,right,right,900.865631258,8.0,50.0,42.0,0.68,853.0,2,,True,151.0,50.0,42.0,8.0,-0.175937309761,0.951459832834,1.13320733701,1.13320733701,-0.352293050866,-1.66388101494,6.80335611359,-0.0734797260512
1,153.0,Monolingual,7.0,1.0,right,right,600.479088476,8.0,58.0,50.0,0.76,653.0,2,,True,152.0,58.0,50.0,8.0,-1.677721519,1.41461667832,1.13320733701,1.13320733701,1.3753607961,0.3282486356,6.39772781739,-1.97079493598
1,154.0,Monolingual,7.0,1.0,right,right,700.865510518,7.0,57.0,50.0,0.74,736.0,2,,True,153.0,57.0,50.0,7.0,-1.17583903768,1.29882746695,0.472990888492,0.472990888492,1.15940406523,0.3282486356,6.55231601487,-1.24771288991
1,155.0,Monolingual,7.0,1.0,left,left,650.540393208,7.0,43.0,50.0,0.7,636.0,2,,True,154.0,50.0,43.0,7.0,-1.42743974457,1.06724904421,0.472990888492,0.472990888492,-0.352293050866,-1.41486480862,6.47780339166,-1.59624363762
1,156.0,Monolingual,7.0,1.0,left,left,867.702518415,6.0,44.0,50.0,0.72,720.0,2,,True,155.0,50.0,44.0,6.0,-0.341736478843,1.18303825558,-0.187225560028,-0.187225560028,-0.352293050866,-1.1658486023,6.7658489352,-0.248918522378
1,157.0,Monolingual,7.0,0.0,left,right,834.111087432,6.0,44.0,50.0,0.36,736.0,2,,True,156.0,44.0,50.0,6.0,-0.509677026874,-0.901167549107,-0.187225560028,-0.187225560028,-1.64803343609,0.3282486356,6.72636659185,-0.433596098532
1,158.0,Monolingual,7.0,1.0,left,left,800.722496331,7.0,50.0,57.0,0.84,1587.0,2,,True,157.0,57.0,50.0,7.0,-0.676603475775,1.8777735238,0.472990888492,0.472990888492,1.15940406523,0.3282486356,6.68551444051,-0.624680913898
1,159.0,Monolingual,7.0,1.0,left,left,967.598442239,7.0,43.0,50.0,0.7,586.0,2,,True,158.0,50.0,43.0,7.0,0.157693753871,1.06724904421,0.472990888492,0.472990888492,-0.352293050866,-1.41486480862,6.87481716881,0.260777396211
1,160.0,Monolingual,7.0,1.0,right,right,934.443781056,6.0,50.0,44.0,0.68,569.0,2,,True,159.0,50.0,44.0,6.0,-0.00806316108939,0.951459832834,-0.187225560028,-0.187225560028,-0.352293050866,-1.1658486023,6.8399514657,0.0976940279266
1,161.0,Monolingual,7.0,1.0,left,left,817.393700734,6.0,50.0,56.0,0.72,586.0,2,,True,160.0,56.0,50.0,6.0,-0.593255695646,1.18303825558,-0.187225560028,-0.187225560028,0.943447334361,0.3282486356,6.70612086463,-0.528294931284
1,162.0,Monolingual,7.0,0.0,right,left,950.878037089,5.0,50.0,45.0,0.3,586.0,2,,True,161.0,45.0,50.0,5.0,0.0740999943313,-1.24853518322,-0.847442008548,-0.847442008548,-1.43207670522,0.3282486356,6.85738580731,0.179242681733
1,163.0,Monolingual,7.0,0.0,left,right,1267.92401232,6.0,44.0,50.0,0.28,619.0,2,,True,162.0,44.0,50.0,6.0,1.65917312975,-1.36432439459,-0.187225560028,-0.187225560028,-1.64803343609,0.3282486356,7.14513620601,1.52518726509
1,164.0,Monolingual,7.0,1.0,left,left,1000.94266212,7.0,50.0,57.0,0.7,536.0,2,,True,163.0,57.0,50.0,7.0,0.324398368608,1.06724904421,0.472990888492,0.472990888492,1.15940406523,0.3282486356,6.90869749708,0.419251700726
1,165.0,Monolingual,7.0,0.0,right,left,700.390708244,7.0,57.0,50.0,0.72,769.0,2,,True,164.0,50.0,57.0,7.0,-1.17821281432,1.18303825558,0.472990888492,0.472990888492,-0.352293050866,2.07136207982,6.55163833397,-1.25088272373
1,166.0,Monolingual,7.0,0.0,right,left,1101.06195128,8.0,58.0,50.0,0.32,786.0,2,,True,165.0,50.0,58.0,8.0,0.824945317575,-1.13274597185,1.13320733701,1.13320733701,-0.352293050866,2.32037828614,7.00403040333,0.865168750263
1,167.0,Monolingual,7.0,1.0,left,left,800.717968656,9.0,41.0,50.0,0.78,836.0,2,,True,166.0,50.0,41.0,9.0,-0.676626111911,1.53040588969,1.79342378553,1.79342378553,-0.352293050866,-1.91289722125,6.68550878601,-0.62470736268
1,168.0,Monolingual,7.0,1.0,left,left,733.990590887,9.0,50.0,59.0,0.7,619.0,2,,True,167.0,59.0,50.0,9.0,-1.01023001217,1.06724904421,1.79342378553,1.79342378553,1.59131752697,0.3282486356,6.59849620958,-1.03170629809
1,169.0,Monolingual,7.0,1.0,right,right,750.902063955,8.0,58.0,50.0,0.8,519.0,2,,True,168.0,58.0,50.0,8.0,-0.9256810075,1.64619510106,1.13320733701,1.13320733701,1.3753607961,0.3282486356,6.62127523574,-0.925158029097
1,170.0,Monolingual,7.0,1.0,left,left,917.534722746,8.0,42.0,50.0,0.74,619.0,2,,True,169.0,50.0,42.0,8.0,-0.0926000931631,1.29882746695,1.13320733701,1.13320733701,-0.352293050866,-1.66388101494,6.82169042417,0.012278507909
1,171.0,Monolingual,7.0,1.0,right,right,1050.99279858,7.0,57.0,50.0,0.28,469.0,2,,True,170.0,57.0,50.0,7.0,0.574624307192,-1.36432439459,0.472990888492,0.472990888492,1.15940406523,0.3282486356,6.95749051888,0.647479719541
1,172.0,Monolingual,7.0,1.0,left,left,984.507802392,7.0,50.0,57.0,0.5,636.0,2,,True,171.0,57.0,50.0,7.0,0.242232195011,-0.0906430695078,0.472990888492,0.472990888492,1.15940406523,0.3282486356,6.89214182328,0.341812991456
1,,Monolingual,7.0,,,,,,,,,,2,1.66909360155,,,,,,,,,,,,,
1,173.0,Monolingual,8.0,1.0,left,left,634.109457471,6.0,50.0,56.0,0.66,452.0,2,,True,172.0,56.0,50.0,6.0,-1.50958630016,0.835670621463,-0.187225560028,-0.187225560028,0.943447334361,0.3282486356,6.45222158539,-1.71590183351
1,174.0,Monolingual,8.0,1.0,left,left,1017.86077578,6.0,50.0,56.0,0.76,536.0,2,,True,173.0,56.0,50.0,6.0,0.408980572955,1.41461667832,-0.187225560028,-0.187225560028,0.943447334361,0.3282486356,6.92545842526,0.497650481779
1,175.0,Monolingual,8.0,0.0,left,right,1200.95998802,5.0,45.0,50.0,0.22,603.0,2,,True,174.0,45.0,50.0,5.0,1.32438611383,-1.71169202871,-0.847442008548,-0.847442008548,-1.43207670522,0.3282486356,7.09087650597,1.27138900907
1,176.0,Monolingual,8.0,1.0,left,left,1051.03354766,6.0,50.0,56.0,0.74,753.0,2,,True,175.0,56.0,50.0,6.0,0.574828032447,1.29882746695,-0.187225560028,-0.187225560028,0.943447334361,0.3282486356,6.95752929012,0.647661070933
1,177.0,Monolingual,8.0,1.0,right,right,734.241725973,6.0,56.0,50.0,0.3,803.0,2,,True,176.0,56.0,50.0,6.0,-1.0089744609,-1.24853518322,-0.187225560028,-0.187225560028,0.943447334361,0.3282486356,6.59883830134,-1.03010617328
1,178.0,Monolingual,8.0,1.0,right,right,867.454703621,5.0,55.0,50.0,0.28,653.0,2,,True,177.0,55.0,50.0,5.0,-0.342975430299,-1.36432439459,-0.847442008548,-0.847442008548,0.72749060349,0.3282486356,6.76556329561,-0.250254593695
1,179.0,Monolingual,8.0,1.0,right,right,784.060649125,5.0,50.0,45.0,0.3,586.0,2,,True,178.0,50.0,45.0,5.0,-0.759904474544,-1.24853518322,-0.847442008548,-0.847442008548,-0.352293050866,-0.916832395986,6.66448637594,-0.723039108167
1,180.0,Monolingual,8.0,0.0,left,right,1034.33970488,4.0,46.0,50.0,0.36,569.0,2,,True,179.0,46.0,50.0,4.0,0.491367071625,-0.901167549107,-1.50765845707,-1.50765845707,-1.21611997435,0.3282486356,6.94151853581,0.572771207591
1,181.0,Monolingual,8.0,1.0,left,left,867.44927041,5.0,45.0,50.0,0.7,686.0,2,,True,180.0,50.0,45.0,5.0,-0.343002593668,1.06724904421,-0.847442008548,-0.847442008548,-0.352293050866,-0.916832395986,6.7655570322,-0.250283890642
1,182.0,Monolingual,8.0,0.0,left,right,950.900071779,5.0,50.0,55.0,0.3,536.0,2,,True,181.0,50.0,55.0,5.0,0.0742101568879,-1.24853518322,-0.847442008548,-0.847442008548,-0.352293050866,1.57332966719,6.85740898003,0.179351071514
1,183.0,Monolingual,8.0,0.0,right,left,700.656030049,6.0,50.0,44.0,0.28,686.0,2,,True,182.0,44.0,50.0,6.0,-1.17688633647,-1.36432439459,-0.187225560028,-0.187225560028,-1.64803343609,0.3282486356,6.55201708194,-1.24911114048
1,184.0,Monolingual,8.0,1.0,left,left,950.884375836,7.0,43.0,50.0,0.74,502.0,2,,True,183.0,50.0,43.0,7.0,0.0741316849326,1.29882746695,0.472990888492,0.472990888492,-0.352293050866,-1.41486480862,6.85739247349,0.179273862615
1,185.0,Monolingual,8.0,0.0,right,left,1017.88431969,7.0,50.0,43.0,0.32,920.0,2,,True,184.0,43.0,50.0,7.0,0.409098280865,-1.13274597185,0.472990888492,0.472990888492,-1.86399016696,0.3282486356,6.92548155577,0.497758674098
1,186.0,Monolingual,8.0,1.0,left,left,1117.56502799,8.0,50.0,58.0,0.66,569.0,2,,True,185.0,58.0,50.0,8.0,0.907452542358,0.835670621463,1.13320733701,1.13320733701,1.3753607961,0.3282486356,7.01890751539,0.934756033131
1,187.0,Monolingual,8.0,0.0,left,right,600.51681911,8.0,42.0,50.0,0.32,486.0,2,,True,186.0,42.0,50.0,8.0,-1.67753288448,-1.13274597185,1.13320733701,1.13320733701,-2.07994689783,0.3282486356,6.39779064964,-1.97050103988
1,188.0,Monolingual,8.0,0.0,left,right,700.975080277,9.0,41.0,50.0,0.2,553.0,2,,True,187.0,41.0,50.0,9.0,-1.17529124306,-1.82748124008,1.79342378553,1.79342378553,-2.29590362871,0.3282486356,6.55247233758,-1.24698169474
1,189.0,Monolingual,8.0,1.0,right,right,734.224822651,10.0,60.0,50.0,0.8,487.0,2,,True,188.0,60.0,50.0,10.0,-1.00905896915,1.64619510106,2.45364023405,2.45364023405,1.80727425785,0.3282486356,6.5988152796,-1.0302138568
1,190.0,Monolingual,8.0,1.0,left,left,650.5591076,10.0,50.0,60.0,0.76,452.0,2,,True,189.0,60.0,50.0,10.0,-1.42734618187,1.41461667832,2.45364023405,2.45364023405,1.80727425785,0.3282486356,6.4778321587,-1.59610908057
1,191.0,Monolingual,8.0,0.0,left,right,600.49840656,9.0,41.0,50.0,0.28,503.0,2,,True,190.0,41.0,50.0,9.0,-1.67762493813,-1.36432439459,1.79342378553,1.79342378553,-2.29590362871,0.3282486356,6.39775998799,-1.97064445887
1,192.0,Monolingual,8.0,1.0,right,right,934.225245233,10.0,60.0,50.0,0.3,469.0,2,,True,191.0,60.0,50.0,10.0,-0.00915573216496,-1.24853518322,2.45364023405,2.45364023405,1.80727425785,0.3282486356,6.83971757107,0.0965999922278
1,193.0,Monolingual,8.0,1.0,left,left,1351.36636202,10.0,50.0,60.0,0.78,569.0,2,,True,192.0,60.0,50.0,10.0,2.07634362613,1.53040588969,2.45364023405,2.45364023405,1.80727425785,0.3282486356,7.2088714796,1.82330725604
1,194.0,Monolingual,8.0,1.0,right,right,934.448006887,9.0,59.0,50.0,0.76,686.0,2,,True,193.0,59.0,50.0,9.0,-0.00804203402355,1.41461667832,1.79342378553,1.79342378553,1.59131752697,0.3282486356,6.83995598799,0.0977151807922
1,195.0,Monolingual,8.0,1.0,left,left,950.894940413,9.0,50.0,59.0,0.7,436.0,2,,True,194.0,59.0,50.0,9.0,0.0741845025947,1.06724904421,1.79342378553,1.79342378553,1.59131752697,0.3282486356,6.85740358369,0.179325830283
1,196.0,Monolingual,8.0,1.0,left,left,1084.3741454,8.0,50.0,58.0,0.66,486.0,2,,True,195.0,58.0,50.0,8.0,0.741514538269,0.835670621463,1.13320733701,1.13320733701,1.3753607961,0.3282486356,6.98875827503,0.793733789769
1,197.0,Monolingual,8.0,1.0,left,left,1017.6150739,8.0,50.0,58.0,0.72,436.0,2,,True,196.0,58.0,50.0,8.0,0.407752185024,1.18303825558,1.13320733701,1.13320733701,1.3753607961,0.3282486356,6.92521700566,0.49652124824
1,198.0,Monolingual,8.0,1.0,right,right,733.737946572,7.0,57.0,50.0,0.32,569.0,2,,True,197.0,57.0,50.0,7.0,-1.01149310884,-1.13274597185,0.472990888492,0.472990888492,1.15940406523,0.3282486356,6.59815194385,-1.03331659157
2,1.0,Monolingual,1.0,0.0,left,right,717.356492509,7.0,43.0,50.0,1.0,870.0,2,,True,0.0,43.0,50.0,7.0,-0.853963994867,0.850873475042,0.709853741948,0.709853741948,-2.15313312937,0.283870545168,6.57557291719,-0.841545687219
2,2.0,Monolingual,1.0,1.0,right,right,633.926892356,8.0,58.0,50.0,1.0,819.0,2,,True,1.0,58.0,50.0,8.0,-1.23896445453,0.850873475042,1.08248037814,1.08248037814,1.6991592768,0.283870545168,6.45193363605,-1.35864629815
2,3.0,Monolingual,1.0,1.0,right,right,617.446475699,8.0,58.0,50.0,0.98,869.0,2,,True,2.0,58.0,50.0,8.0,-1.31501621526,0.788150858491,1.08248037814,1.08248037814,1.6991592768,0.283870545168,6.42559238572,-1.46881417128
2,4.0,Monolingual,1.0,1.0,left,left,650.835944134,7.0,50.0,57.0,0.92,1387.0,2,,True,3.0,57.0,50.0,7.0,-1.16093468218,0.599983008835,0.709853741948,0.709853741948,1.44233978305,0.283870545168,6.47825760451,-1.24855070353
2,5.0,Monolingual,1.0,1.0,left,left,901.113877786,7.0,50.0,57.0,0.78,686.0,2,,True,4.0,57.0,50.0,7.0,-0.00598344996727,0.160924692972,0.709853741948,0.709853741948,1.44233978305,0.283870545168,6.80363164006,0.112271771411
2,6.0,Monolingual,1.0,1.0,right,right,717.34230529,6.0,50.0,44.0,0.78,1721.0,2,,True,5.0,50.0,44.0,6.0,-0.854029464267,0.160924692972,0.337227105755,0.337227105755,-0.355396673162,-1.25602994643,6.57555313991,-0.841628402378
2,7.0,Monolingual,1.0,0.0,right,left,867.737992859,6.0,56.0,50.0,0.68,1003.0,2,,True,6.0,50.0,56.0,6.0,-0.160002299573,-0.152688389788,0.337227105755,0.337227105755,-0.355396673162,1.82377103677,6.76588981755,-0.0455770877741
2,8.0,Monolingual,1.0,1.0,right,right,1134.48789121,7.0,50.0,43.0,0.32,719.0,2,,True,7.0,50.0,43.0,7.0,1.07096169034,-1.28169548772,0.709853741948,0.709853741948,-0.355396673162,-1.51268002836,7.03393663092,1.07548387015
2,9.0,Monolingual,1.0,1.0,right,right,667.281647384,7.0,50.0,43.0,0.76,636.0,2,,True,8.0,50.0,43.0,7.0,-1.08504311254,0.0982020764196,0.709853741948,0.709853741948,-0.355396673162,-1.51268002836,6.50321221674,-1.14418221233
2,10.0,Monolingual,1.0,0.0,right,left,934.072598111,6.0,50.0,44.0,0.2,903.0,2,,True,9.0,44.0,50.0,6.0,0.146110320731,-1.65803118703,0.337227105755,0.337227105755,-1.89631363563,0.283870545168,6.83955416338,0.262511716046
2,11.0,Monolingual,1.0,1.0,right,right,750.698267741,7.0,50.0,43.0,0.26,1704.0,2,,True,10.0,50.0,43.0,7.0,-0.700102550406,-1.46986333738,0.709853741948,0.709853741948,-0.355396673162,-1.51268002836,6.62100379705,-0.651538631895
2,12.0,Monolingual,1.0,1.0,left,left,767.626034573,7.0,43.0,50.0,0.24,886.0,2,,True,11.0,50.0,43.0,7.0,-0.621986414173,-1.53258595393,0.709853741948,0.709853741948,-0.355396673162,-1.51268002836,6.64330268041,-0.558277282429
2,13.0,Monolingual,1.0,1.0,left,left,951.156122494,6.0,44.0,50.0,0.3,1086.0,2,,True,12.0,50.0,44.0,6.0,0.224945227384,-1.34441810427,0.337227105755,0.337227105755,-0.355396673162,-1.25602994643,6.85767821573,0.338312533213
2,14.0,Monolingual,1.0,1.0,right,right,850.781247878,6.0,56.0,50.0,0.66,669.0,2,,True,13.0,56.0,50.0,6.0,-0.238252160535,-0.21541100634,0.337227105755,0.337227105755,1.18552028931,0.283870545168,6.74615504251,-0.128114483143
2,15.0,Monolingual,1.0,1.0,right,right,633.898216063,5.0,55.0,50.0,1.0,1687.0,2,,True,14.0,55.0,50.0,5.0,-1.23909678629,0.850873475042,-0.0353995304384,-0.0353995304384,0.928700795562,0.283870545168,6.45188839906,-1.35883549427
2,16.0,Monolingual,1.0,1.0,left,left,683.959175825,5.0,45.0,50.0,0.6,1120.0,2,,True,15.0,50.0,45.0,5.0,-1.00808174506,-0.403578855996,-0.0353995304384,-0.0353995304384,-0.355396673162,-0.999379864496,6.52789823137,-1.04093708559
2,17.0,Monolingual,1.0,1.0,left,left,617.445570132,4.0,50.0,54.0,0.18,769.0,2,,True,16.0,54.0,50.0,4.0,-1.31502039416,-1.72075380359,-0.408026166632,-0.408026166632,0.671881301817,0.283870545168,6.42559091908,-1.46882030523
2,18.0,Monolingual,1.0,0.0,left,right,517.323348751,4.0,50.0,54.0,0.76,653.0,2,,True,17.0,50.0,54.0,4.0,-1.7770518696,0.0982020764196,-0.408026166632,-0.408026166632,-0.355396673162,1.3104708729,6.24866811179,-2.20877035097
2,19.0,Monolingual,1.0,1.0,left,left,700.663871281,5.0,50.0,55.0,0.6,1086.0,2,,True,18.0,55.0,50.0,5.0,-0.930995010646,-0.403578855996,-0.0353995304384,-0.0353995304384,0.928700795562,0.283870545168,6.55202827315,-0.940017222339
2,20.0,Monolingual,1.0,1.0,right,right,900.87601548,5.0,55.0,50.0,0.78,636.0,2,,True,19.0,55.0,50.0,5.0,-0.00708110711748,0.160924692972,-0.0353995304384,-0.0353995304384,0.928700795562,0.283870545168,6.80336764046,0.111167637237
2,21.0,Monolingual,1.0,1.0,left,left,650.590535435,4.0,46.0,50.0,0.5,1270.0,2,,True,20.0,50.0,46.0,4.0,-1.16206716348,-0.717191938755,-0.408026166632,-0.408026166632,-0.355396673162,-0.742729782563,6.47788046649,-1.25012802021
2,22.0,Monolingual,1.0,1.0,right,right,650.566990689,4.0,54.0,50.0,0.78,669.0,2,,True,21.0,54.0,50.0,4.0,-1.16217581482,0.160924692972,-0.408026166632,-0.408026166632,0.671881301817,0.283870545168,6.47784427603,-1.25027938076
2,23.0,Monolingual,1.0,0.0,right,left,700.883622244,3.0,53.0,50.0,0.84,736.0,2,,True,22.0,50.0,53.0,3.0,-0.929980931451,0.349092542627,-0.780652802825,-0.780652802825,-0.355396673162,1.05382079097,6.55234185648,-0.93870571252
2,24.0,Monolingual,1.0,1.0,left,left,784.310807551,4.0,46.0,50.0,0.94,519.0,2,,True,23.0,50.0,46.0,4.0,-0.544991615514,0.662705625387,-0.408026166632,-0.408026166632,-0.355396673162,-0.742729782563,6.66480537999,-0.468345838396
2,25.0,Monolingual,1.0,1.0,right,right,817.239040449,4.0,50.0,46.0,0.36,1086.0,2,,True,24.0,50.0,46.0,4.0,-0.393038534372,-1.15625025462,-0.408026166632,-0.408026166632,-0.355396673162,-0.742729782563,6.70593163523,-0.296342155467
2,,Monolingual,1.0,,,,,,,,,,2,1.9528220642,,,,,,,,,,,,,
2,26.0,Monolingual,2.0,1.0,right,right,584.074514895,3.0,53.0,50.0,0.76,536.0,2,,True,25.0,53.0,50.0,3.0,-1.46901695631,0.0982020764196,-0.780652802825,-0.780652802825,0.415061808072,0.283870545168,6.37002856869,-1.70120054126
2,27.0,Monolingual,2.0,1.0,left,left,867.53273097,3.0,47.0,50.0,0.86,1670.0,2,,True,26.0,50.0,47.0,3.0,-0.160949516406,0.411815159179,-0.780652802825,-0.780652802825,-0.355396673162,-0.48607970063,6.76565324133,-0.0465665282189
2,28.0,Monolingual,2.0,0.0,left,right,1267.99082721,2.0,48.0,50.0,0.22,870.0,2,,True,27.0,48.0,50.0,2.0,1.68703430284,-1.59530857048,-1.15327943902,-1.15327943902,-0.869035660651,0.283870545168,7.14518890091,1.54077787903
2,29.0,Monolingual,2.0,1.0,right,right,517.136500061,3.0,50.0,47.0,0.14,1520.0,2,,True,28.0,50.0,47.0,3.0,-1.77791411551,-1.84619903669,-0.780652802825,-0.780652802825,-0.355396673162,-0.48607970063,6.24830686299,-2.21028121367
2,30.0,Monolingual,2.0,1.0,left,left,684.191001017,3.0,50.0,53.0,0.74,836.0,2,,True,29.0,53.0,50.0,3.0,-1.00701194722,0.0354794598677,-0.780652802825,-0.780652802825,0.415061808072,0.283870545168,6.52823711989,-1.03951974104
2,31.0,Monolingual,2.0,1.0,right,right,784.319561368,2.0,52.0,50.0,0.92,987.0,2,,True,30.0,52.0,50.0,2.0,-0.544951219497,0.599983008835,-1.15327943902,-1.15327943902,0.158242314328,0.283870545168,6.66481654109,-0.46829915898
2,32.0,Monolingual,2.0,1.0,left,left,1000.99008676,2.0,50.0,52.0,0.74,1286.0,2,,True,31.0,52.0,50.0,2.0,0.454912758262,0.0354794598677,-1.15327943902,-1.15327943902,0.158242314328,0.283870545168,6.90874487593,0.551890297031
2,33.0,Monolingual,2.0,0.0,left,right,667.51528371,1.0,50.0,51.0,0.86,586.0,2,,True,32.0,50.0,51.0,1.0,-1.08396495691,0.411815159179,-1.52590607521,-1.52590607521,-0.355396673162,0.540520627101,6.50356228696,-1.14271810219
2,34.0,Monolingual,2.0,1.0,right,right,717.325703226,2.0,52.0,50.0,0.7,703.0,2,,True,33.0,52.0,50.0,2.0,-0.85410607739,-0.0899657732361,-1.15327943902,-1.15327943902,0.158242314328,0.283870545168,6.57552999579,-0.841725198787
2,35.0,Monolingual,2.0,1.0,left,left,750.704002999,2.0,50.0,52.0,0.0,1504.0,2,,True,34.0,52.0,50.0,2.0,-0.700076084056,-2.28525735255,-1.15327943902,-1.15327943902,0.158242314328,0.283870545168,6.62101143692,-0.651506679422
2,36.0,Monolingual,2.0,0.0,left,right,784.055135758,1.0,50.0,51.0,0.86,586.0,2,,True,35.0,50.0,51.0,1.0,-0.546171457652,0.411815159179,-1.52590607521,-1.52590607521,-0.355396673162,0.540520627101,6.6644793441,-0.469709428978
2,37.0,Monolingual,2.0,0.0,right,left,1118.02679332,2.0,52.0,50.0,0.84,1270.0,2,,True,36.0,50.0,52.0,2.0,0.994999079432,0.349092542627,-1.15327943902,-1.15327943902,-0.355396673162,0.797170709034,7.01932061883,1.01435484454
2,38.0,Monolingual,2.0,1.0,left,left,867.549031179,3.0,47.0,50.0,0.22,1320.0,2,,True,37.0,50.0,47.0,3.0,-0.160874296245,-1.59530857048,-0.780652802825,-0.780652802825,-0.355396673162,-0.48607970063,6.76567203031,-0.0464879464495
2,39.0,Monolingual,2.0,1.0,right,right,600.537725777,3.0,50.0,47.0,0.72,703.0,2,,True,38.0,50.0,47.0,3.0,-1.39304459464,-0.0272431566842,-0.780652802825,-0.780652802825,-0.355396673162,-0.48607970063,6.39782546349,-1.58494467863
2,40.0,Monolingual,2.0,0.0,right,left,1435.03778177,2.0,50.0,48.0,0.86,1370.0,2,,True,39.0,48.0,50.0,2.0,2.45790164697,0.411815159179,-1.15327943902,-1.15327943902,-0.869035660651,0.283870545168,7.26894645661,2.0583731535
2,41.0,Monolingual,2.0,1.0,right,right,1217.90692641,3.0,50.0,47.0,0.26,886.0,2,,True,40.0,50.0,47.0,3.0,1.45591339618,-1.46986333738,-0.780652802825,-0.780652802825,-0.355396673162,-0.48607970063,7.10488903025,1.37223041138
2,42.0,Monolingual,2.0,1.0,right,right,834.154129341,3.0,50.0,47.0,0.76,469.0,2,,True,41.0,50.0,47.0,3.0,-0.314980902707,0.0982020764196,-0.780652802825,-0.780652802825,-0.355396673162,-0.48607970063,6.72641819265,-0.210660556091
2,43.0,Monolingual,2.0,1.0,right,right,1184.52258952,2.0,52.0,50.0,0.78,886.0,2,,True,42.0,52.0,50.0,2.0,1.30185554351,0.160924692972,-1.15327943902,-1.15327943902,0.158242314328,0.283870545168,7.07709509435,1.25598692386
2,44.0,Monolingual,2.0,1.0,left,left,917.539054848,2.0,50.0,52.0,0.14,1254.0,2,,True,43.0,52.0,50.0,2.0,0.0698133980022,-1.84619903669,-1.15327943902,-1.15327943902,0.158242314328,0.283870545168,6.82169514561,0.187819361715
2,45.0,Monolingual,2.0,0.0,left,right,1017.67516159,1.0,50.0,51.0,0.84,1070.0,2,,True,44.0,50.0,51.0,1.0,0.531908949869,0.349092542627,-1.52590607521,-1.52590607521,-0.355396673162,0.540520627101,6.92527605148,0.621029173442
2,46.0,Monolingual,2.0,1.0,right,right,1334.93487916,2.0,50.0,48.0,0.92,1403.0,2,,True,45.0,50.0,48.0,2.0,1.99595932136,0.599983008835,-1.15327943902,-1.15327943902,-0.355396673162,-0.229429618698,7.19663778999,1.7559542512
2,47.0,Monolingual,2.0,0.0,right,left,1234.83620252,2.0,50.0,48.0,0.86,1237.0,2,,True,46.0,48.0,50.0,2.0,1.53403649724,0.411815159179,-1.15327943902,-1.15327943902,-0.869035660651,0.283870545168,7.11869361073,1.42996575999
2,48.0,Monolingual,2.0,1.0,right,right,1368.30985852,3.0,53.0,50.0,0.9,1036.0,2,,True,47.0,53.0,50.0,3.0,2.14997399207,0.537260392283,-0.780652802825,-0.780652802825,0.415061808072,0.283870545168,7.2213315773,1.85923188584
2,49.0,Monolingual,2.0,1.0,right,right,801.001013933,3.0,50.0,47.0,1.0,1020.0,2,,True,48.0,50.0,47.0,3.0,-0.467971743464,0.850873475042,-0.780652802825,-0.780652802825,-0.355396673162,-0.48607970063,6.6858622129,-0.380279157152
2,50.0,Monolingual,2.0,1.0,right,right,1435.05438384,2.0,52.0,50.0,0.96,719.0,2,,True,49.0,52.0,50.0,2.0,2.45797826012,0.725428241939,-1.15327943902,-1.15327943902,0.158242314328,0.283870545168,7.26895802562,2.05842153897
2,,Monolingual,2.0,,,,,,,,,,2,1.11828789851,,,,,,,,,,,,,
2,51.0,Monolingual,3.0,1.0,left,left,1000.96956057,2.0,50.0,52.0,0.8,619.0,2,,True,50.0,52.0,50.0,2.0,0.454818036574,0.223647309523,-1.15327943902,-1.15327943902,0.158242314328,0.283870545168,6.90872436983,0.551804533708
2,52.0,Monolingual,3.0,1.0,right,right,1418.30199518,1.0,50.0,49.0,0.94,569.0,2,,True,51.0,50.0,49.0,1.0,2.38067143709,0.662705625387,-1.52590607521,-1.52590607521,-0.355396673162,0.0272204632353,7.25721565704,2.00931104665
2,53.0,Monolingual,3.0,1.0,right,right,1334.94212369,1.0,50.0,49.0,0.94,1036.0,2,,True,52.0,50.0,49.0,1.0,1.99599275251,0.662705625387,-1.52590607521,-1.52590607521,-0.355396673162,0.0272204632353,7.19664321685,1.75597694816
2,54.0,Monolingual,3.0,0.0,right,left,1284.66805379,1.0,51.0,50.0,0.7,1120.0,2,,True,53.0,50.0,51.0,1.0,1.76399427733,-0.0899657732361,-1.52590607521,-1.52590607521,-0.355396673162,0.540520627101,7.15825564006,1.59542732971
2,55.0,Monolingual,3.0,1.0,right,right,1301.56925732,2.0,52.0,50.0,0.8,686.0,2,,True,54.0,52.0,50.0,2.0,1.84198783257,0.223647309523,-1.15327943902,-1.15327943902,0.158242314328,0.283870545168,7.17132593648,1.65009165808
2,56.0,Monolingual,3.0,1.0,right,right,951.179969096,2.0,52.0,50.0,0.94,586.0,2,,True,55.0,52.0,50.0,2.0,0.225055271693,0.662705625387,-1.15327943902,-1.15327943902,0.158242314328,0.283870545168,6.85770328659,0.338417387896
2,57.0,Monolingual,3.0,1.0,left,left,1118.0283026,1.0,49.0,50.0,0.24,1120.0,2,,True,56.0,50.0,49.0,1.0,0.995006044268,-1.53258595393,-1.52590607521,-1.52590607521,-0.355396673162,0.0272204632353,7.01932196878,1.01436049048
2,,Monolingual,3.0,,right,,,1.0,50.0,49.0,,,2,,False,57.0,,,1.0,,,-1.52590607521,-1.52590607521,,,,
2,58.0,Monolingual,3.0,1.0,left,left,984.545590929,1.0,49.0,50.0,0.26,1487.0,2,,True,57.0,50.0,49.0,1.0,0.379026760459,-1.46986333738,-1.52590607521,-1.52590607521,-0.355396673162,0.0272204632353,6.89218020572,0.482611334831
2,59.0,Monolingual,3.0,0.0,right,left,1334.94272741,1.0,51.0,50.0,0.86,753.0,2,,True,58.0,50.0,51.0,1.0,1.99599553848,0.411815159179,-1.52590607521,-1.52590607521,-0.355396673162,0.540520627101,7.1966436691,1.75597883959
2,60.0,Monolingual,3.0,1.0,left,left,1117.77021596,2.0,50.0,52.0,0.98,619.0,2,,True,59.0,52.0,50.0,2.0,0.993815058397,0.788150858491,-1.15327943902,-1.15327943902,0.158242314328,0.283870545168,7.01909110125,1.01339492565
2,61.0,Monolingual,3.0,1.0,left,left,951.168196723,2.0,48.0,50.0,0.24,769.0,2,,True,60.0,50.0,48.0,2.0,0.225000946022,-1.53258595393,-1.15327943902,-1.15327943902,-0.355396673162,-0.229429618698,6.85769090992,0.338365624521
2,62.0,Monolingual,3.0,1.0,right,right,734.006250225,1.0,50.0,49.0,0.78,569.0,2,,True,61.0,50.0,49.0,1.0,-0.77713078025,0.160924692972,-1.52590607521,-1.52590607521,-0.355396673162,0.0272204632353,6.59851754387,-0.745583624308
2,63.0,Monolingual,3.0,1.0,right,right,1234.82231716,1.0,51.0,50.0,0.04,903.0,2,,True,62.0,51.0,50.0,1.0,1.53397242082,-2.15981211945,-1.52590607521,-1.52590607521,-0.0985771794172,0.283870545168,7.11868236597,1.42991873065
2,64.0,Monolingual,3.0,1.0,right,right,734.00443909,1.0,50.0,49.0,1.0,1053.0,2,,True,63.0,50.0,49.0,1.0,-0.777139138049,0.850873475042,-1.52590607521,-1.52590607521,-0.355396673162,0.0272204632353,6.5985150764,-0.745593944082
2,65.0,Monolingual,3.0,1.0,right,right,1001.02993171,1.0,51.0,50.0,0.92,1354.0,2,,True,64.0,51.0,50.0,1.0,0.455096629742,0.599983008835,-1.52590607521,-1.52590607521,-0.0985771794172,0.283870545168,6.90878468068,0.552056773726
2,66.0,Monolingual,3.0,0.0,left,right,1334.94061442,1.0,50.0,51.0,0.0,1070.0,2,,True,65.0,50.0,51.0,1.0,1.99598578772,-2.28525735255,-1.52590607521,-1.52590607521,-0.355396673162,0.540520627101,7.19664208626,1.75597221966
2,67.0,Monolingual,3.0,1.0,left,left,1167.84989077,2.0,48.0,50.0,0.02,936.0,2,,True,66.0,50.0,48.0,2.0,1.22491646349,-2.222534736,-1.15327943902,-1.15327943902,-0.355396673162,-0.229429618698,7.06291963695,1.19670044457
2,68.0,Monolingual,3.0,1.0,right,right,700.890866782,2.0,50.0,48.0,1.0,519.0,2,,True,67.0,50.0,48.0,2.0,-0.929947500265,0.850873475042,-1.15327943902,-1.15327943902,-0.355396673162,-0.229429618698,6.55235219272,-0.93866248293
2,69.0,Monolingual,3.0,0.0,left,right,1268.19276868,1.0,49.0,50.0,0.26,719.0,2,,True,68.0,49.0,50.0,1.0,1.68796619702,-1.46986333738,-1.52590607521,-1.52590607521,-0.612216166907,0.283870545168,7.14534814922,1.54144390843
2,70.0,Monolingual,3.0,0.0,right,left,950.922184313,2.0,50.0,48.0,0.16,736.0,2,,True,69.0,48.0,50.0,2.0,0.223865678794,-1.78347642014,-1.15327943902,-1.15327943902,-0.869035660651,0.283870545168,6.85743223408,0.337283756101
2,71.0,Monolingual,3.0,0.0,left,right,684.188284315,3.0,47.0,50.0,0.96,603.0,2,,True,70.0,47.0,50.0,3.0,-1.00702448392,0.725428241939,-0.780652802825,-0.780652802825,-1.1258551544,0.283870545168,6.52823314921,-1.03953634777
2,72.0,Monolingual,3.0,1.0,right,right,1001.00125542,4.0,50.0,46.0,1.0,1236.0,2,,True,71.0,50.0,46.0,4.0,0.454964297994,0.850873475042,-0.408026166632,-0.408026166632,-0.355396673162,-0.742729782563,6.90875603348,0.551936961621
2,73.0,Monolingual,3.0,0.0,left,right,784.315939099,4.0,46.0,50.0,1.0,703.0,2,,True,72.0,46.0,50.0,4.0,-0.54496793509,0.850873475042,-0.408026166632,-0.408026166632,-1.38267464814,0.283870545168,6.66481192272,-0.468318474536
2,74.0,Monolingual,3.0,1.0,right,right,734.246527376,5.0,55.0,50.0,0.94,953.0,2,,True,73.0,55.0,50.0,5.0,-0.776021979376,0.662705625387,-0.0353995304384,-0.0353995304384,0.928700795562,0.283870545168,6.59884484058,-0.744214760561
2,,Monolingual,3.0,,,,,,,,,,2,1.68558678186,,,,,,,,,,,,,
2,75.0,Monolingual,4.0,1.0,left,left,883.98688618,5.0,50.0,55.0,0.98,736.0,2,,True,74.0,55.0,50.0,5.0,-0.0850189437117,0.788150858491,-0.0353995304384,-0.0353995304384,0.928700795562,0.283870545168,6.78444222789,0.032015265018
2,76.0,Monolingual,4.0,1.0,left,left,534.019894103,4.0,50.0,54.0,0.92,753.0,2,,True,75.0,54.0,50.0,4.0,-1.70000274527,0.599983008835,-0.408026166632,-0.408026166632,0.671881301817,0.283870545168,6.28043309314,-2.07591863015
2,77.0,Monolingual,4.0,0.0,left,right,750.706417845,4.0,46.0,50.0,1.0,536.0,2,,True,76.0,46.0,50.0,4.0,-0.700064940328,0.850873475042,-0.408026166632,-0.408026166632,-1.38267464814,0.283870545168,6.62101465369,-0.65149322582
2,78.0,Monolingual,4.0,1.0,right,right,834.167410993,5.0,55.0,50.0,0.94,1120.0,2,,True,77.0,55.0,50.0,5.0,-0.314919612205,0.662705625387,-0.0353995304384,-0.0353995304384,0.928700795562,0.283870545168,6.72643411482,-0.210593964267
2,79.0,Monolingual,4.0,0.0,right,left,867.73859657,5.0,50.0,45.0,0.16,719.0,2,,True,78.0,45.0,50.0,5.0,-0.159999513643,-1.78347642014,-0.0353995304384,-0.0353995304384,-1.63949414189,0.283870545168,6.76589051328,-0.0455741780024
2,80.0,Monolingual,4.0,0.0,left,right,734.229623456,6.0,50.0,56.0,0.92,402.0,2,,True,79.0,50.0,56.0,6.0,-0.776099985467,0.599983008835,0.337227105755,0.337227105755,-0.355396673162,1.82377103677,6.59882181819,-0.744311047883
2,81.0,Monolingual,4.0,1.0,right,right,1101.34171848,7.0,50.0,43.0,0.88,519.0,2,,True,80.0,50.0,43.0,7.0,0.918002887778,0.474537775731,0.709853741948,0.709853741948,-0.355396673162,-1.51268002836,7.00428445958,0.951468623719
2,82.0,Monolingual,4.0,1.0,right,right,1151.15243985,7.0,57.0,50.0,0.88,636.0,2,,True,81.0,57.0,50.0,7.0,1.14786316025,0.474537775731,0.709853741948,0.709853741948,1.44233978305,0.283870545168,7.04851884118,1.13647152522
2,83.0,Monolingual,4.0,0.0,left,right,767.628449418,6.0,50.0,56.0,0.2,803.0,2,,True,82.0,50.0,56.0,6.0,-0.621975270449,-1.65803118703,0.337227105755,0.337227105755,-0.355396673162,1.82377103677,6.64330582626,-0.558264125411
2,84.0,Monolingual,4.0,1.0,right,right,734.239886551,7.0,50.0,43.0,1.0,1036.0,2,,True,83.0,50.0,43.0,7.0,-0.776052624623,0.850873475042,0.709853741948,0.709853741948,-0.355396673162,-1.51268002836,6.59883579613,-0.744252587455
2,85.0,Monolingual,4.0,0.0,left,right,1234.81356334,7.0,43.0,50.0,0.1,853.0,2,,True,84.0,43.0,50.0,7.0,1.53393202479,-1.97164426979,0.709853741948,0.709853741948,-2.15313312937,0.283870545168,7.11867527681,1.42988908144
2,86.0,Monolingual,4.0,0.0,left,right,734.258299749,8.0,50.0,58.0,1.0,652.0,2,,True,85.0,50.0,58.0,8.0,-0.775967653705,0.850873475042,1.08248037814,1.08248037814,-0.355396673162,2.33707120063,6.59886087372,-0.744147704628
2,87.0,Monolingual,4.0,0.0,left,right,1268.19850394,9.0,50.0,59.0,0.16,1287.0,2,,True,86.0,50.0,59.0,9.0,1.68799266338,-1.78347642014,1.45510701433,1.45510701433,-0.355396673162,2.59372128256,7.14535267159,1.54146282252
2,88.0,Monolingual,4.0,1.0,left,left,767.369759068,10.0,40.0,50.0,1.0,936.0,2,,True,87.0,50.0,40.0,10.0,-0.623169042245,0.850873475042,1.82773365053,1.82773365053,-0.355396673162,-2.28263027416,6.64296877004,-0.559673806698
2,89.0,Monolingual,4.0,1.0,right,right,817.682164644,10.0,50.0,40.0,0.96,686.0,2,,True,88.0,50.0,40.0,10.0,-0.390993660389,0.725428241939,1.82773365053,1.82773365053,-0.355396673162,-2.28263027416,6.70647370932,-0.294075021296
2,90.0,Monolingual,4.0,1.0,right,right,684.191906584,9.0,50.0,41.0,0.84,1420.0,2,,True,89.0,50.0,41.0,9.0,-1.00700776833,0.349092542627,1.45510701433,1.45510701433,-0.355396673162,-2.02598019223,6.52823844345,-1.03951420548
2,91.0,Monolingual,4.0,1.0,right,right,617.195029885,9.0,50.0,41.0,0.94,536.0,2,,True,90.0,50.0,41.0,9.0,-1.31617655588,0.662705625387,1.45510701433,1.45510701433,-0.355396673162,-2.02598019223,6.42518506778,-1.47051771043
2,92.0,Monolingual,4.0,1.0,left,left,867.288227838,8.0,50.0,58.0,0.98,836.0,2,,True,91.0,58.0,50.0,8.0,-0.162077818807,0.788150858491,1.08248037814,1.08248037814,1.6991592768,0.283870545168,6.76537136425,-0.047745431956
2,93.0,Monolingual,4.0,1.0,right,right,750.933715201,8.0,58.0,50.0,1.0,1053.0,2,,True,92.0,58.0,50.0,8.0,-0.699016036984,0.850873475042,1.08248037814,1.08248037814,1.6991592768,0.283870545168,6.62131738582,-0.650227099329
2,94.0,Monolingual,4.0,1.0,right,right,734.257092327,7.0,57.0,50.0,0.96,719.0,2,,True,93.0,57.0,50.0,7.0,-0.775973225564,0.725428241939,0.709853741948,0.709853741948,1.44233978305,0.283870545168,6.59885922931,-0.744154582105
2,95.0,Monolingual,4.0,1.0,right,right,717.130704432,7.0,57.0,50.0,0.94,569.0,2,,True,94.0,57.0,50.0,7.0,-0.855005933379,0.662705625387,0.709853741948,0.709853741948,1.44233978305,0.283870545168,6.57525811748,-0.842862284358
2,96.0,Monolingual,4.0,0.0,left,right,1468.22138461,6.0,50.0,56.0,0.9,586.0,2,,True,95.0,50.0,56.0,6.0,2.6110331773,0.537260392283,0.337227105755,0.337227105755,-0.355396673162,1.82377103677,7.29180700476,2.15398357202
2,97.0,Monolingual,4.0,1.0,right,right,867.721088938,7.0,50.0,43.0,0.96,586.0,2,,True,96.0,50.0,43.0,7.0,-0.160080305668,0.725428241939,0.709853741948,0.709853741948,-0.355396673162,-1.51268002836,6.76587033692,-0.0456585622642
2,98.0,Monolingual,4.0,0.0,left,right,800.99346754,7.0,43.0,50.0,0.98,519.0,2,,True,97.0,43.0,50.0,7.0,-0.468006567612,0.788150858491,0.709853741948,0.709853741948,-2.15313312937,0.283870545168,6.68585279165,-0.380318559942
2,99.0,Monolingual,4.0,1.0,right,right,767.373079481,8.0,50.0,42.0,0.26,820.0,2,,True,98.0,50.0,42.0,8.0,-0.62315371962,-1.46986333738,1.08248037814,1.08248037814,-0.355396673162,-1.76933011029,6.64297309703,-0.559655709762
2,,Monolingual,4.0,,,,,,,,,,2,1.30205796173,,,,,,,,,,,,,
2,100.0,Monolingual,5.0,1.0,right,right,717.56296182,8.0,58.0,50.0,1.0,870.0,2,,True,99.0,58.0,50.0,8.0,-0.853011206175,0.850873475042,1.08248037814,1.08248037814,1.6991592768,0.283870545168,6.57586069545,-0.840342102783
2,101.0,Monolingual,5.0,1.0,right,right,850.808414893,7.0,57.0,50.0,0.94,502.0,2,,True,100.0,57.0,50.0,7.0,-0.2381267936,0.662705625387,0.709853741948,0.709853741948,1.44233978305,0.283870545168,6.74618697384,-0.127980935674
2,102.0,Monolingual,5.0,1.0,right,right,867.530919836,7.0,57.0,50.0,0.98,486.0,2,,True,101.0,57.0,50.0,7.0,-0.1609578742,0.788150858491,0.709853741948,0.709853741948,1.44233978305,0.283870545168,6.76565115365,-0.0465752596161
2,103.0,Monolingual,5.0,1.0,right,right,950.936673387,6.0,56.0,50.0,1.0,602.0,2,,True,102.0,56.0,50.0,6.0,0.223932541156,0.850873475042,0.337227105755,0.337227105755,1.18552028931,0.283870545168,6.85744747083,0.337347481259
2,104.0,Monolingual,5.0,1.0,right,right,950.716318713,6.0,56.0,50.0,0.98,553.0,2,,True,103.0,56.0,50.0,6.0,0.222915676031,0.788150858491,0.337227105755,0.337227105755,1.18552028931,0.283870545168,6.85721572016,0.33637822286
2,105.0,Monolingual,5.0,0.0,right,left,1034.37683849,5.0,50.0,45.0,1.0,1053.0,2,,True,104.0,45.0,50.0,5.0,0.608981754628,0.850873475042,-0.0353995304384,-0.0353995304384,-1.63949414189,0.283870545168,6.94155443596,0.689110793441
2,106.0,Monolingual,5.0,0.0,left,right,1184.75894255,6.0,44.0,50.0,0.0,1904.0,2,,True,105.0,44.0,50.0,6.0,1.30294623585,-2.28525735255,0.337227105755,0.337227105755,-1.89631363563,0.283870545168,7.07729460887,1.25682135995
2,107.0,Monolingual,5.0,1.0,left,left,1034.59296718,7.0,43.0,50.0,1.0,886.0,2,,True,106.0,50.0,43.0,7.0,0.609979118212,0.850873475042,0.709853741948,0.709853741948,-0.355396673162,-1.51268002836,6.94176335992,0.689984582989
2,108.0,Monolingual,5.0,1.0,right,right,917.794726641,7.0,57.0,50.0,0.96,619.0,2,,True,107.0,57.0,50.0,7.0,0.0709932401404,0.725428241939,0.709853741948,0.709853741948,1.44233978305,0.283870545168,6.82197375629,0.18898460427
2,109.0,Monolingual,5.0,1.0,right,right,1067.76811806,6.0,50.0,44.0,0.96,469.0,2,,True,108.0,50.0,44.0,6.0,0.763071645502,0.725428241939,0.337227105755,0.337227105755,-0.355396673162,-1.25602994643,6.97332587803,0.821989535152
2,110.0,Monolingual,5.0,1.0,right,right,1084.6542288,6.0,50.0,44.0,0.96,486.0,2,,True,109.0,50.0,44.0,6.0,0.840995552424,0.725428241939,0.337227105755,0.337227105755,-0.355396673162,-1.25602994643,6.98901653205,0.887613070872
2,111.0,Monolingual,5.0,0.0,right,left,817.682466499,5.0,55.0,50.0,0.96,1353.0,2,,True,110.0,50.0,55.0,5.0,-0.390992267427,0.725428241939,-0.0353995304384,-0.0353995304384,-0.355396673162,1.56712095483,6.70647407848,-0.294073477349
2,112.0,Monolingual,5.0,0.0,right,left,634.131852389,6.0,56.0,50.0,0.88,886.0,2,,True,111.0,50.0,56.0,6.0,-1.23801863067,0.474537775731,0.337227105755,0.337227105755,-0.355396673162,1.82377103677,6.45225690188,-1.35729429287
2,113.0,Monolingual,5.0,1.0,left,left,717.332947763,7.0,43.0,50.0,1.0,736.0,2,,True,112.0,50.0,43.0,7.0,-0.854072646209,0.850873475042,0.709853741948,0.709853741948,-0.355396673162,-1.51268002836,6.57554009511,-0.841682960079
2,114.0,Monolingual,5.0,0.0,left,right,934.233185354,7.0,43.0,50.0,0.86,502.0,2,,True,113.0,43.0,50.0,7.0,0.146851378608,0.411815159179,0.709853741948,0.709853741948,-2.15313312937,0.283870545168,6.83972607019,0.263230687521
2,115.0,Monolingual,5.0,0.0,right,left,767.399642784,8.0,58.0,50.0,0.04,1821.0,2,,True,114.0,50.0,58.0,8.0,-0.623031138619,-2.15981211945,1.08248037814,1.08248037814,-0.355396673162,2.33707120063,6.64300771232,-0.559510937093
2,116.0,Monolingual,5.0,0.0,left,right,1001.22432679,9.0,41.0,50.0,0.88,569.0,2,,True,115.0,41.0,50.0,9.0,0.455993699787,0.474537775731,1.45510701433,1.45510701433,-2.66677211686,0.283870545168,6.9089788569,0.55286888328
2,117.0,Monolingual,5.0,0.0,right,left,717.3401923,10.0,60.0,50.0,0.92,702.0,2,,True,116.0,50.0,60.0,10.0,-0.854039215028,0.599983008835,1.82773365053,1.82773365053,-0.355396673162,2.8503713645,6.57555019432,-0.841640721797
2,118.0,Monolingual,5.0,1.0,right,right,634.139700638,11.0,61.0,50.0,0.8,619.0,2,,True,117.0,61.0,50.0,11.0,-1.23798241355,0.223647309523,2.20036028672,2.20036028672,2.46961775803,0.283870545168,6.45226927817,-1.3572425311
2,119.0,Monolingual,5.0,1.0,right,right,734.005948369,11.0,61.0,50.0,1.0,686.0,2,,True,118.0,61.0,50.0,11.0,-0.777132173217,0.850873475042,2.20036028672,2.20036028672,2.46961775803,0.283870545168,6.59851713263,-0.74558534427
2,120.0,Monolingual,5.0,0.0,left,right,1101.1446067,10.0,50.0,60.0,0.22,886.0,2,,True,119.0,50.0,60.0,10.0,0.917093281047,-1.59530857048,1.82773365053,1.82773365053,-0.355396673162,2.8503713645,7.00410546933,0.950720026972
2,121.0,Monolingual,5.0,1.0,right,right,851.05110689,11.0,50.0,39.0,0.94,669.0,2,,True,120.0,50.0,39.0,11.0,-0.237006848997,0.662705625387,2.20036028672,2.20036028672,-0.355396673162,-2.53928035609,6.74647218187,-0.126788100809
2,122.0,Monolingual,5.0,1.0,right,right,801.001617645,11.0,50.0,39.0,1.0,603.0,2,,True,121.0,50.0,39.0,11.0,-0.46796895753,0.850873475042,2.20036028672,2.20036028672,-0.355396673162,-2.53928035609,6.6858629666,-0.380276004942
2,123.0,Monolingual,5.0,1.0,left,left,1017.92087215,10.0,40.0,50.0,0.94,1203.0,2,,True,122.0,50.0,40.0,10.0,0.533042824158,0.662705625387,1.82773365053,1.82773365053,-0.355396673162,-2.28263027416,6.92551746536,0.622038846582
2,124.0,Monolingual,5.0,1.0,right,right,834.168618415,10.0,60.0,50.0,1.0,586.0,2,,True,123.0,60.0,50.0,10.0,-0.314914040345,0.850873475042,1.82773365053,1.82773365053,2.21279826429,0.283870545168,6.72643556228,-0.210587910521
2,,Monolingual,5.0,,,,,,,,,,2,1.83576754816,,,,,,,,,,,,,
2,125.0,Monolingual,6.0,0.0,left,right,717.561452542,9.0,50.0,59.0,1.0,1153.0,2,,True,124.0,50.0,59.0,9.0,-0.853018171002,0.850873475042,1.45510701433,1.45510701433,-0.355396673162,2.59372128256,6.57585859211,-0.840350899655
2,126.0,Monolingual,6.0,1.0,right,right,717.360718489,10.0,60.0,50.0,0.9,753.0,2,,True,125.0,60.0,50.0,10.0,-0.853944493344,0.537260392283,1.82773365053,1.82773365053,2.21279826429,0.283870545168,6.57557880822,-0.841521048977
2,127.0,Monolingual,6.0,1.0,right,right,934.249787418,10.0,60.0,50.0,0.86,586.0,2,,True,126.0,60.0,50.0,10.0,0.146927991731,0.411815159179,1.82773365053,1.82773365053,2.21279826429,0.283870545168,6.83974384082,0.263305010227
2,128.0,Monolingual,6.0,1.0,right,right,984.543176084,9.0,59.0,50.0,1.0,636.0,2,,True,127.0,59.0,50.0,9.0,0.379015616735,0.850873475042,1.45510701433,1.45510701433,1.95597877054,0.283870545168,6.89217775297,0.482601076599
2,129.0,Monolingual,6.0,1.0,left,left,1084.65362509,9.0,41.0,50.0,0.94,653.0,2,,True,128.0,50.0,41.0,9.0,0.840992766499,0.662705625387,1.45510701433,1.45510701433,-0.355396673162,-2.02598019223,6.98901597546,0.887610743018
2,130.0,Monolingual,6.0,1.0,right,right,934.266993194,8.0,50.0,42.0,0.92,469.0,2,,True,129.0,50.0,42.0,8.0,0.14700739079,0.599983008835,1.08248037814,1.08248037814,-0.355396673162,-1.76933011029,6.83976225733,0.263382034186
2,131.0,Monolingual,6.0,0.0,right,left,1351.39476963,8.0,58.0,50.0,0.2,469.0,2,,True,130.0,50.0,58.0,8.0,2.07191636042,-1.65803118703,1.08248037814,1.08248037814,-0.355396673162,2.33707120063,7.20889250078,1.8072075291
2,132.0,Monolingual,6.0,1.0,left,left,1284.67499648,9.0,50.0,59.0,0.88,436.0,2,,True,131.0,59.0,50.0,9.0,1.76402631558,0.474537775731,1.45510701433,1.45510701433,1.95597877054,0.283870545168,7.15826104431,1.59544993209
2,133.0,Monolingual,6.0,1.0,right,right,1217.90149301,9.0,59.0,50.0,0.14,452.0,2,,True,132.0,59.0,50.0,9.0,1.45588832281,-1.84619903669,1.45510701433,1.45510701433,1.95597877054,0.283870545168,7.10488456898,1.37221175287
2,134.0,Monolingual,6.0,1.0,right,right,884.420049136,8.0,58.0,50.0,0.7,953.0,2,,True,133.0,58.0,50.0,8.0,-0.0830200376056,-0.0899657732361,1.08248037814,1.08248037814,1.6991592768,0.283870545168,6.78493211849,0.0340641504909
2,135.0,Monolingual,6.0,1.0,left,left,884.206033432,8.0,50.0,58.0,0.3,1020.0,2,,True,134.0,58.0,50.0,8.0,-0.0840076504465,-1.34441810427,1.08248037814,1.08248037814,1.6991592768,0.283870545168,6.78469010497,0.0330519694601
2,136.0,Monolingual,6.0,1.0,left,left,850.609491974,7.0,43.0,50.0,0.82,586.0,2,,True,135.0,50.0,43.0,7.0,-0.239044758149,0.286369926075,0.709853741948,0.709853741948,-0.355396673162,-1.51268002836,6.74595314191,-0.128958898623
2,137.0,Monolingual,6.0,1.0,left,left,950.93576782,7.0,50.0,57.0,1.0,1170.0,2,,True,136.0,57.0,50.0,7.0,0.223928362259,0.850873475042,0.709853741948,0.709853741948,1.44233978305,0.283870545168,6.85744651854,0.337343498466
2,138.0,Monolingual,6.0,1.0,left,left,667.506529894,6.0,50.0,56.0,0.82,619.0,2,,True,137.0,56.0,50.0,6.0,-1.08400535292,0.286369926075,0.337227105755,0.337227105755,1.18552028931,0.283870545168,6.50354917284,-1.14277294979
2,139.0,Monolingual,6.0,0.0,left,right,884.183394253,6.0,44.0,50.0,0.2,1036.0,2,,True,138.0,44.0,50.0,6.0,-0.0841121228916,-1.65803118703,0.337227105755,0.337227105755,-1.89631363563,0.283870545168,6.78466450068,0.0329448837949
2,140.0,Monolingual,6.0,0.0,right,left,1034.30831724,7.0,50.0,43.0,0.84,703.0,2,,True,139.0,43.0,50.0,7.0,0.608665551354,0.349092542627,0.709853741948,0.709853741948,-2.15313312937,0.283870545168,6.94148818977,0.688833729853
2,141.0,Monolingual,6.0,1.0,right,right,1251.51765509,8.0,58.0,50.0,0.2,1103.0,2,,True,140.0,58.0,50.0,8.0,1.6110159733,-1.65803118703,1.08248037814,1.08248037814,1.6991592768,0.283870545168,7.13211221792,1.48608683988
2,142.0,Monolingual,6.0,1.0,left,left,817.684277634,8.0,50.0,58.0,0.96,1153.0,2,,True,141.0,58.0,50.0,8.0,-0.390983909628,0.725428241939,1.08248037814,1.08248037814,1.6991592768,0.283870545168,6.70647629344,-0.294064213655
2,143.0,Monolingual,6.0,1.0,right,right,1001.24123071,7.0,57.0,50.0,0.8,1103.0,2,,True,142.0,57.0,50.0,7.0,0.456071705878,0.223647309523,0.709853741948,0.709853741948,1.44233978305,0.283870545168,6.90899574,0.55293949405
2,144.0,Monolingual,6.0,0.0,right,left,1017.64407045,7.0,57.0,50.0,0.7,1670.0,2,,True,143.0,50.0,57.0,7.0,0.531765474374,-0.0899657732361,0.709853741948,0.709853741948,-0.355396673162,2.0804211187,6.92524549987,0.620901396443
2,145.0,Monolingual,6.0,0.0,left,right,1017.91724988,8.0,42.0,50.0,0.86,619.0,2,,True,144.0,42.0,50.0,8.0,0.533026108561,0.411815159179,1.08248037814,1.08248037814,-2.40995262312,0.283870545168,6.92551390685,0.622023963731
2,146.0,Monolingual,6.0,1.0,left,left,984.303804499,9.0,50.0,59.0,0.86,820.0,2,,True,145.0,59.0,50.0,9.0,0.377910994754,0.411815159179,1.45510701433,1.45510701433,1.95597877054,0.283870545168,6.89193459381,0.4815841041
2,147.0,Monolingual,6.0,1.0,left,left,1151.18534213,9.0,41.0,50.0,0.18,819.0,2,,True,146.0,50.0,41.0,9.0,1.14801499357,-1.72075380359,1.45510701433,1.45510701433,-0.355396673162,-2.02598019223,7.0485474228,1.13659106309
2,148.0,Monolingual,6.0,1.0,left,left,817.45184873,8.0,42.0,50.0,0.88,419.0,2,,True,147.0,50.0,42.0,8.0,-0.392056493396,0.474537775731,1.08248037814,1.08248037814,-0.355396673162,-1.76933011029,6.7061920004,-0.295253221715
2,149.0,Monolingual,6.0,1.0,left,left,750.713662382,8.0,42.0,50.0,0.84,553.0,2,,True,148.0,50.0,42.0,8.0,-0.700031509146,0.349092542627,1.08248037814,1.08248037814,-0.355396673162,-1.76933011029,6.62102430394,-0.651452865278
2,,Monolingual,6.0,,,,,,,,,,2,0.483959538052,,,,,,,,,,,,,
2,150.0,Monolingual,7.0,1.0,left,left,1067.71770815,7.0,43.0,50.0,0.86,903.0,2,,True,149.0,50.0,43.0,7.0,0.762839020169,0.411815159179,0.709853741948,0.709853741948,-0.355396673162,-1.51268002836,6.97327866637,0.821792080303
2,151.0,Monolingual,7.0,1.0,right,right,700.44261104,7.0,57.0,50.0,0.96,619.0,2,,True,150.0,57.0,50.0,7.0,-0.932016054668,0.725428241939,0.709853741948,0.709853741948,1.44233978305,0.283870545168,6.55171243671,-0.941338155423
2,152.0,Monolingual,7.0,1.0,right,right,1267.95641566,6.0,50.0,44.0,0.06,586.0,2,,True,151.0,50.0,44.0,6.0,1.68687550473,-2.0970895029,0.337227105755,0.337227105755,-0.355396673162,-1.25602994643,7.1451617619,1.54066437465
2,153.0,Monolingual,7.0,1.0,right,right,800.998297232,6.0,50.0,44.0,0.86,519.0,2,,True,152.0,50.0,44.0,6.0,-0.467984280155,0.411815159179,0.337227105755,0.337227105755,-0.355396673162,-1.25602994643,6.68585882126,-0.380293342111
2,154.0,Monolingual,7.0,1.0,left,left,1201.23271838,5.0,45.0,50.0,0.14,1270.0,2,,True,153.0,50.0,45.0,5.0,1.37896735132,-1.84619903669,-0.0353995304384,-0.0353995304384,-0.355396673162,-0.999379864496,7.09110357382,1.31457504588
2,,Monolingual,7.0,,right,,,5.0,50.0,45.0,,,2,,False,154.0,,,5.0,,,-0.0353995304384,-0.0353995304384,,,,
2,155.0,Monolingual,7.0,1.0,right,right,600.50784206,5.0,50.0,45.0,0.82,702.0,2,,True,154.0,50.0,45.0,5.0,-1.39318249827,0.286369926075,-0.0353995304384,-0.0353995304384,-0.355396673162,-0.999379864496,6.39777570065,-1.58515280337
2,156.0,Monolingual,7.0,1.0,right,right,884.426086251,4.0,50.0,46.0,0.78,886.0,2,,True,155.0,50.0,46.0,4.0,-0.0829921782842,0.160924692972,-0.408026166632,-0.408026166632,-0.355396673162,-0.742729782563,6.78493894454,0.0340926992981
2,157.0,Monolingual,7.0,0.0,right,left,750.957561803,4.0,50.0,46.0,0.1,886.0,2,,True,156.0,46.0,50.0,4.0,-0.698905992675,-1.97164426979,-0.408026166632,-0.408026166632,-1.38267464814,0.283870545168,6.62134914125,-0.650094287553
2,158.0,Monolingual,7.0,1.0,left,left,867.737087292,5.0,50.0,55.0,0.76,1337.0,2,,True,157.0,55.0,50.0,5.0,-0.16000647847,0.0982020764196,-0.0353995304384,-0.0353995304384,0.928700795562,0.283870545168,6.76588877395,-0.0455814524377
2,159.0,Monolingual,7.0,1.0,left,left,900.899560227,5.0,50.0,55.0,0.86,769.0,2,,True,158.0,55.0,50.0,5.0,-0.0069724557707,0.411815159179,-0.0353995304384,-0.0353995304384,0.928700795562,0.283870545168,6.80339377551,0.11127694271
2,160.0,Monolingual,7.0,1.0,left,left,967.840593617,4.0,50.0,54.0,0.94,569.0,2,,True,159.0,54.0,50.0,4.0,0.30193863308,0.662705625387,-0.408026166632,-0.408026166632,0.671881301817,0.283870545168,6.8750673977,0.411039877925
2,161.0,Monolingual,7.0,0.0,left,right,934.481914466,4.0,46.0,50.0,0.0,1404.0,2,,True,160.0,46.0,50.0,4.0,0.147999182532,-2.28525735255,-0.408026166632,-0.408026166632,-1.38267464814,0.283870545168,6.83999227354,0.264344038518
2,162.0,Monolingual,7.0,1.0,right,right,800.993165685,5.0,50.0,45.0,0.9,569.0,2,,True,161.0,50.0,45.0,5.0,-0.468007960575,0.537260392283,-0.0353995304384,-0.0353995304384,-0.355396673162,-0.999379864496,6.6858524148,-0.380320136058
2,163.0,Monolingual,7.0,1.0,left,left,800.996787953,5.0,50.0,55.0,0.86,936.0,2,,True,162.0,55.0,50.0,5.0,-0.467991244987,0.411815159179,-0.0353995304384,-0.0353995304384,0.928700795562,0.283870545168,6.68585693701,-0.380301222668
2,164.0,Monolingual,7.0,1.0,left,left,650.592346569,4.0,46.0,50.0,0.84,485.0,2,,True,163.0,50.0,46.0,4.0,-1.16205880569,0.349092542627,-0.408026166632,-0.408026166632,-0.355396673162,-0.742729782563,6.47788325032,-1.25011637732
2,165.0,Monolingual,7.0,1.0,right,right,900.867261665,4.0,50.0,46.0,0.96,686.0,2,,True,164.0,50.0,46.0,4.0,-0.00712150312552,0.725428241939,-0.408026166632,-0.408026166632,-0.355396673162,-0.742729782563,6.80335792341,0.1111269973
2,166.0,Monolingual,7.0,1.0,left,left,934.47949962,3.0,47.0,50.0,1.0,1003.0,2,,True,165.0,50.0,47.0,3.0,0.147988038803,0.850873475042,-0.780652802825,-0.780652802825,-0.355396673162,-0.48607970063,6.83998968938,0.264333230708
2,167.0,Monolingual,7.0,1.0,right,right,851.052012457,3.0,50.0,47.0,0.14,703.0,2,,True,166.0,50.0,47.0,3.0,-0.2370026701,-1.84619903669,-0.780652802825,-0.780652802825,-0.355396673162,-0.48607970063,6.74647324593,-0.126783650571
2,168.0,Monolingual,7.0,1.0,right,right,1234.82593943,2.0,50.0,48.0,0.84,970.0,2,,True,167.0,50.0,48.0,2.0,1.53398913642,0.349092542627,-1.15327943902,-1.15327943902,-0.355396673162,-0.229429618698,7.1186852994,1.42993099923
2,169.0,Monolingual,7.0,0.0,left,right,717.297026932,2.0,48.0,50.0,0.84,769.0,2,,True,168.0,48.0,50.0,2.0,-0.854238409157,0.349092542627,-1.15327943902,-1.15327943902,-0.869035660651,0.283870545168,6.57549001832,-0.841892397871
2,170.0,Monolingual,7.0,1.0,left,left,967.601523889,3.0,47.0,50.0,0.94,1086.0,2,,True,169.0,50.0,47.0,3.0,0.30083540407,0.662705625387,-0.780652802825,-0.780652802825,-0.355396673162,-0.48607970063,6.87482035365,0.410006657513
2,171.0,Monolingual,7.0,1.0,left,left,851.055634726,3.0,47.0,50.0,0.9,703.0,2,,True,170.0,50.0,47.0,3.0,-0.236985954507,0.537260392283,-0.780652802825,-0.780652802825,-0.355396673162,-0.48607970063,6.74647750214,-0.126765849659
2,172.0,Monolingual,7.0,1.0,right,right,750.944582006,2.0,50.0,48.0,0.88,536.0,2,,True,171.0,50.0,48.0,2.0,-0.698965890215,0.474537775731,-1.15327943902,-1.15327943902,-0.355396673162,-0.229429618698,6.62133185677,-0.650166576989
2,173.0,Monolingual,7.0,1.0,right,right,683.970948198,2.0,52.0,50.0,0.98,1153.0,2,,True,172.0,52.0,50.0,2.0,-1.00802741939,0.788150858491,-1.15327943902,-1.15327943902,0.158242314328,0.283870545168,6.52791544333,-1.04086509948
2,,Monolingual,7.0,,,,,,,,,,2,1.03460896554,,,,,,,,,,,,,
2,174.0,Monolingual,8.0,1.0,left,left,1000.77607105,1.0,49.0,50.0,0.86,1203.0,2,,True,173.0,50.0,49.0,1.0,0.453925145394,0.411815159179,-1.52590607521,-1.52590607521,-0.355396673162,0.0272204632353,6.90853104904,0.550996001855
2,175.0,Monolingual,8.0,0.0,left,right,1050.83823824,1.0,49.0,50.0,0.96,653.0,2,,True,174.0,49.0,50.0,1.0,0.684945758517,0.725428241939,-1.52590607521,-1.52590607521,-0.612216166907,0.283870545168,6.9573434468,0.755145690082
2,176.0,Monolingual,8.0,0.0,right,left,1385.00429088,2.0,52.0,50.0,0.08,536.0,2,,True,175.0,50.0,52.0,2.0,2.22701336564,-2.03436688634,-1.15327943902,-1.15327943902,-0.355396673162,0.797170709034,7.23345851672,1.90995078139
2,177.0,Monolingual,8.0,0.0,left,right,1051.28830511,3.0,50.0,53.0,0.8,419.0,2,,True,176.0,50.0,53.0,3.0,0.687022670686,0.223647309523,-0.780652802825,-0.780652802825,-0.355396673162,1.05382079097,6.9577716483,0.756936571256
2,178.0,Monolingual,8.0,1.0,left,left,1084.64396571,4.0,50.0,54.0,0.88,1103.0,2,,True,177.0,54.0,50.0,4.0,0.840948191603,0.474537775731,-0.408026166632,-0.408026166632,0.671881301817,0.283870545168,6.98900706992,0.887573497099
2,179.0,Monolingual,8.0,1.0,right,right,851.035712248,4.0,54.0,50.0,0.98,903.0,2,,True,178.0,54.0,50.0,4.0,-0.237077890261,0.788150858491,-0.408026166632,-0.408026166632,0.671881301817,0.283870545168,6.74645409273,-0.126863755604
2,180.0,Monolingual,8.0,1.0,right,right,950.95901071,3.0,50.0,47.0,0.98,736.0,2,,True,179.0,50.0,47.0,3.0,0.224035620634,0.788150858491,-0.780652802825,-0.780652802825,-0.355396673162,-0.48607970063,6.85747096037,0.337445722312
2,181.0,Monolingual,8.0,1.0,right,right,767.382738864,3.0,53.0,50.0,0.92,653.0,2,,True,180.0,53.0,50.0,3.0,-0.62310914471,0.599983008835,-0.780652802825,-0.780652802825,0.415061808072,0.283870545168,6.64298568455,-0.559603064575
2,182.0,Monolingual,8.0,0.0,left,right,984.331273369,2.0,50.0,52.0,0.98,686.0,2,,True,181.0,50.0,52.0,2.0,0.378037754651,0.788150858491,-1.15327943902,-1.15327943902,-0.355396673162,0.797170709034,6.89196250032,0.481700818421
2,183.0,Monolingual,8.0,0.0,right,left,584.079042731,3.0,53.0,50.0,0.92,436.0,2,,True,182.0,50.0,53.0,3.0,-1.46899606182,0.599983008835,-0.780652802825,-0.780652802825,-0.355396673162,1.05382079097,6.37003632081,-1.70116811929
2,184.0,Monolingual,8.0,1.0,left,left,683.948610875,4.0,50.0,54.0,0.88,503.0,2,,True,183.0,54.0,50.0,4.0,-1.00813049887,0.474537775731,-0.408026166632,-0.408026166632,0.671881301817,0.283870545168,6.5278827845,-1.04100168956
2,185.0,Monolingual,8.0,0.0,left,right,350.246208617,4.0,46.0,50.0,0.88,569.0,2,,True,184.0,46.0,50.0,4.0,-2.54805851033,0.474537775731,-0.408026166632,-0.408026166632,-1.38267464814,0.283870545168,5.85863636037,-3.84001290659
2,186.0,Monolingual,8.0,1.0,right,right,800.769490597,5.0,50.0,45.0,0.94,719.0,2,,True,185.0,50.0,45.0,5.0,-0.46904014833,0.662705625387,-0.0353995304384,-0.0353995304384,-0.355396673162,-0.999379864496,6.68557312862,-0.381488203801
2,187.0,Monolingual,8.0,1.0,left,left,717.573526771,5.0,50.0,55.0,0.9,469.0,2,,True,186.0,55.0,50.0,5.0,-0.852962452363,0.537260392283,-0.0353995304384,-0.0353995304384,0.928700795562,0.283870545168,6.57587541872,-0.840280525169
2,188.0,Monolingual,8.0,0.0,right,left,817.4370578,4.0,50.0,46.0,1.0,1086.0,2,,True,187.0,46.0,50.0,4.0,-0.392124748725,0.850873475042,-0.408026166632,-0.408026166632,-1.38267464814,0.283870545168,6.70617390629,-0.295328897304
2,189.0,Monolingual,8.0,0.0,right,left,967.626879769,5.0,55.0,50.0,0.0,786.0,2,,True,188.0,50.0,55.0,5.0,0.300952413206,-2.28525735255,-0.0353995304384,-0.0353995304384,-0.355396673162,1.56712095483,6.87484655819,0.410116253597
2,190.0,Monolingual,8.0,1.0,right,right,1034.60836183,6.0,56.0,50.0,1.0,669.0,2,,True,189.0,56.0,50.0,6.0,0.610050159513,0.850873475042,0.337227105755,0.337227105755,1.18552028931,0.283870545168,6.94177823972,0.690046815259
2,191.0,Monolingual,8.0,1.0,left,left,1017.67908572,6.0,44.0,50.0,0.64,970.0,2,,True,190.0,50.0,44.0,6.0,0.531927058453,-0.278133622892,0.337227105755,0.337227105755,-0.355396673162,-1.25602994643,6.92527990745,0.621045300382
2,192.0,Monolingual,8.0,1.0,right,right,834.148997794,5.0,55.0,50.0,1.0,786.0,2,,True,191.0,55.0,50.0,5.0,-0.315004583127,0.850873475042,-0.0353995304384,-0.0353995304384,0.928700795562,0.283870545168,6.72641204083,-0.210686285033
2,193.0,Monolingual,8.0,1.0,left,left,1017.91906101,5.0,45.0,50.0,0.08,669.0,2,,True,192.0,50.0,45.0,5.0,0.533034466336,-2.03436688634,-0.0353995304384,-0.0353995304384,-0.355396673162,-0.999379864496,6.9255156861,0.622031405143
2,194.0,Monolingual,8.0,1.0,right,right,850.801472211,4.0,54.0,50.0,0.92,636.0,2,,True,193.0,54.0,50.0,4.0,-0.238158831819,0.599983008835,-0.408026166632,-0.408026166632,0.671881301817,0.283870545168,6.74617881371,-0.128015064068
2,195.0,Monolingual,8.0,1.0,left,left,750.953033967,4.0,46.0,50.0,0.88,736.0,2,,True,194.0,50.0,46.0,4.0,-0.698926887165,0.474537775731,-0.408026166632,-0.408026166632,-0.355396673162,-0.742729782563,6.62134311182,-0.650119504655
2,196.0,Monolingual,8.0,0.0,right,left,734.018626309,3.0,53.0,50.0,0.14,836.0,2,,True,195.0,50.0,53.0,3.0,-0.777073668649,-1.84619903669,-0.780652802825,-0.780652802825,-0.355396673162,1.05382079097,6.59853440474,-0.745513106564
2,197.0,Monolingual,8.0,0.0,left,right,617.21163195,4.0,46.0,50.0,0.8,669.0,2,,True,196.0,46.0,50.0,4.0,-1.31609994275,0.223647309523,-0.408026166632,-0.408026166632,-1.38267464814,0.283870545168,6.42521196663,-1.47040521045
2,198.0,Monolingual,8.0,1.0,right,right,867.529108702,5.0,55.0,50.0,0.9,602.0,2,,True,197.0,55.0,50.0,5.0,-0.160966231994,0.537260392283,-0.0353995304384,-0.0353995304384,0.928700795562,0.283870545168,6.76564906596,-0.0465839910316
3,1.0,Monolingual,1.0,1.0,left,left,684.195830709,9.0,50.0,59.0,0.64,1570.0,2,,True,0.0,59.0,50.0,9.0,-0.908456149724,-0.151773878573,2.47057924229,2.47057924229,2.13483690893,0.256917174413,6.52824417885,-0.963216030151
3,2.0,Monolingual,1.0,0.0,left,right,584.069685203,9.0,50.0,59.0,0.86,1554.0,2,,True,1.0,50.0,59.0,9.0,-1.49934508524,0.419298516198,2.47057924229,2.47057924229,-0.478523470911,2.89181191665,6.37002029969,-1.7908023985
3,3.0,Monolingual,1.0,1.0,right,right,633.699293143,10.0,60.0,50.0,0.86,1454.0,2,,True,2.0,60.0,50.0,10.0,-1.20645868621,0.419298516198,3.07611337031,3.07611337031,2.42521028446,0.256917174413,6.45157454088,-1.36423481178
3,4.0,Monolingual,1.0,1.0,right,right,700.871849869,10.0,60.0,50.0,0.7,1253.0,2,,True,3.0,60.0,50.0,10.0,-0.810043540707,0.00397313818254,3.07611337031,3.07611337031,2.42521028446,0.256917174413,6.55232505986,-0.837261534729
3,5.0,Monolingual,1.0,1.0,right,right,700.664776847,9.0,50.0,41.0,1.0,769.0,2,,True,4.0,50.0,41.0,9.0,-0.811265570746,0.782708221961,2.47057924229,2.47057924229,-0.478523470911,-2.37797756782,6.55202956559,-0.838807110743
3,6.0,Monolingual,1.0,1.0,left,left,700.871849869,9.0,41.0,50.0,0.74,1053.0,2,,True,5.0,50.0,41.0,9.0,-0.810043540707,0.107804482686,2.47057924229,2.47057924229,-0.478523470911,-2.37797756782,6.55232505986,-0.837261534729
3,7.0,Monolingual,1.0,1.0,left,left,566.94390102,8.0,50.0,58.0,0.38,1103.0,2,,True,6.0,58.0,50.0,8.0,-1.60041195778,-0.826677617847,1.86504511428,1.86504511428,1.84446353339,0.256917174413,6.34026035883,-1.94646108607
3,8.0,Monolingual,1.0,1.0,left,left,700.877585132,8.0,42.0,50.0,0.88,953.0,2,,True,7.0,50.0,42.0,8.0,-0.810009694368,0.471214188449,1.86504511428,1.86504511428,-0.478523470911,-2.08521148535,6.55233324287,-0.837218733696
3,9.0,Monolingual,1.0,1.0,left,left,567.166670542,7.0,50.0,57.0,0.6,1170.0,2,,True,8.0,57.0,50.0,7.0,-1.59909729571,-0.255605223077,1.25951098627,1.25951098627,1.55409015785,0.256917174413,6.34065321211,-1.94440627605
3,10.0,Monolingual,1.0,0.0,left,right,667.25810264,7.0,43.0,50.0,1.0,803.0,2,,True,9.0,43.0,50.0,7.0,-1.00841321946,0.782708221961,1.25951098627,1.25951098627,-2.51113709967,0.256917174413,6.50317693155,-1.09432969183
3,11.0,Monolingual,1.0,1.0,left,left,683.939253347,8.0,50.0,58.0,0.28,1387.0,2,,True,10.0,58.0,50.0,8.0,-0.909970326901,-1.08625597911,1.86504511428,1.86504511428,1.84446353339,0.256917174413,6.52786910278,-0.965177856924
3,12.0,Monolingual,1.0,1.0,right,right,617.453720235,8.0,58.0,50.0,0.84,820.0,2,,True,11.0,58.0,50.0,8.0,-1.30233104037,0.367382843946,1.86504511428,1.86504511428,1.84446353339,0.256917174413,6.42560411871,-1.50007250891
3,13.0,Monolingual,1.0,1.0,left,left,767.618790036,7.0,50.0,57.0,0.64,1070.0,2,,True,12.0,57.0,50.0,7.0,-0.416140147893,-0.151773878573,1.25951098627,1.25951098627,1.55409015785,0.256917174413,6.64329324278,-0.361454541953
3,14.0,Monolingual,1.0,1.0,left,left,683.931405099,7.0,50.0,57.0,0.72,803.0,2,,True,13.0,57.0,50.0,7.0,-0.910016642904,0.0558888104344,1.25951098627,1.25951098627,1.55409015785,0.256917174413,6.52785762765,-0.965237877337
3,15.0,Monolingual,1.0,1.0,right,right,767.154234083,6.0,56.0,50.0,0.78,619.0,2,,True,14.0,56.0,50.0,6.0,-0.418881699274,0.21163582719,0.653976858254,0.653976858254,1.26371678231,0.256917174413,6.64268786861,-0.364620937616
3,16.0,Monolingual,1.0,1.0,left,left,600.531688662,6.0,50.0,56.0,1.0,853.0,2,,True,15.0,56.0,50.0,6.0,-1.4021954781,0.782708221961,0.653976858254,0.653976858254,1.26371678231,0.256917174413,6.39781541059,-1.64542070889
3,17.0,Monolingual,1.0,1.0,right,right,600.76260829,5.0,55.0,50.0,0.68,987.0,2,,True,16.0,55.0,50.0,5.0,-1.40083271863,-0.0479425340693,0.0484427302411,0.0484427302411,0.973343406776,0.256917174413,6.39819986198,-1.64340984472
3,18.0,Monolingual,1.0,0.0,left,right,583.829106195,5.0,50.0,55.0,1.0,953.0,2,,True,17.0,50.0,55.0,5.0,-1.50076484901,0.782708221961,0.0484427302411,0.0484427302411,-0.478523470911,1.72074758677,6.36960831363,-1.79295728213
3,19.0,Monolingual,1.0,1.0,left,left,700.41936815,6.0,50.0,56.0,0.66,803.0,2,,True,18.0,56.0,50.0,6.0,-0.812713836661,-0.0998582063212,0.653976858254,0.653976858254,1.26371678231,0.256917174413,6.55167925301,-0.840639412642
3,20.0,Monolingual,1.0,1.0,right,right,884.417332432,6.0,56.0,50.0,0.1,1020.0,2,,True,19.0,56.0,50.0,6.0,0.273140020014,-1.55349702937,0.653976858254,0.653976858254,1.26371678231,0.256917174413,6.78492904675,0.379368279829
3,21.0,Monolingual,1.0,1.0,left,left,650.831114443,5.0,50.0,55.0,0.62,669.0,2,,True,20.0,55.0,50.0,5.0,-1.10535618596,-0.203689550825,0.0484427302411,0.0484427302411,0.973343406776,0.256917174413,6.47825018373,-1.22470847413
3,22.0,Monolingual,1.0,1.0,left,left,784.101017827,5.0,45.0,50.0,0.6,736.0,2,,True,21.0,50.0,45.0,5.0,-0.318871187971,-0.255605223077,0.0484427302411,0.0484427302411,-0.478523470911,-1.20691323794,6.66453786132,-0.250335052279
3,23.0,Monolingual,1.0,0.0,right,left,750.479120492,4.0,54.0,50.0,0.26,870.0,2,,True,22.0,50.0,54.0,4.0,-0.517288964126,-1.13817165136,-0.557091397772,-0.557091397772,-0.478523470911,1.4279815043,6.62071182989,-0.479566103757
3,24.0,Monolingual,1.0,0.0,left,right,617.454323947,5.0,50.0,55.0,0.76,819.0,2,,True,23.0,50.0,55.0,5.0,-1.3023274776,0.159720154938,0.0484427302411,0.0484427302411,-0.478523470911,1.72074758677,6.42560509645,-1.50006739484
3,25.0,Monolingual,1.0,1.0,left,left,584.071496338,6.0,50.0,56.0,0.28,619.0,2,,True,24.0,56.0,50.0,6.0,-1.49933439693,-1.08625597911,0.653976858254,0.653976858254,1.26371678231,0.256917174413,6.37002340057,-1.7907861794
3,,Monolingual,1.0,,,,,,,,,,2,0.217240730839,,,,,,,,,,,,,
3,26.0,Monolingual,2.0,1.0,right,right,817.439170791,6.0,50.0,44.0,1.0,1236.0,2,,True,25.0,50.0,44.0,6.0,-0.1221279136,0.782708221961,0.653976858254,0.653976858254,-0.478523470911,-1.49967932041,6.70617649118,-0.0325451544764
3,27.0,Monolingual,2.0,1.0,left,left,834.369654323,5.0,50.0,55.0,0.32,769.0,2,,True,26.0,55.0,50.0,5.0,-0.0222135971,-0.982424634603,0.0484427302411,0.0484427302411,0.973343406776,0.256917174413,6.72667653476,0.0746798529407
3,28.0,Monolingual,2.0,1.0,left,left,617.220687622,5.0,50.0,55.0,0.64,703.0,2,,True,27.0,55.0,50.0,5.0,-1.30370626951,-0.151773878573,0.0484427302411,0.0484427302411,0.973343406776,0.256917174413,6.42522663843,-1.50204691081
3,29.0,Monolingual,2.0,1.0,left,left,684.198245555,4.0,50.0,54.0,0.32,769.0,2,,True,28.0,54.0,50.0,4.0,-0.908441898644,-0.982424634603,-0.557091397772,-0.557091397772,0.682970031239,0.256917174413,6.52824770831,-0.963197569392
3,30.0,Monolingual,2.0,1.0,right,right,767.424394951,4.0,50.0,46.0,1.0,769.0,2,,True,29.0,50.0,46.0,4.0,-0.417287359785,0.782708221961,-0.557091397772,-0.557091397772,-0.478523470911,-0.914147155469,6.6430399664,-0.362779298215
3,31.0,Monolingual,2.0,1.0,right,right,801.023653112,3.0,50.0,47.0,1.0,819.0,2,,True,30.0,50.0,47.0,3.0,-0.219003187468,0.782708221961,-1.16262552579,-1.16262552579,-0.478523470911,-0.621381072999,6.68589047611,-0.138650690708
3,32.0,Monolingual,2.0,1.0,right,right,684.200358544,3.0,53.0,50.0,0.68,752.0,2,,True,31.0,53.0,50.0,3.0,-0.908429428955,-0.0479425340693,-1.16262552579,-1.16262552579,0.392596655701,0.256917174413,6.52825079658,-0.963181416291
3,33.0,Monolingual,2.0,1.0,right,right,717.558433986,2.0,50.0,48.0,1.0,1187.0,2,,True,32.0,50.0,48.0,2.0,-0.711568583177,0.782708221961,-1.7681596538,-1.7681596538,-0.478523470911,-0.328614990528,6.57585438541,-0.714191937504
3,34.0,Monolingual,2.0,0.0,left,right,1034.34242694,2.0,50.0,52.0,0.74,870.0,2,,True,33.0,50.0,52.0,2.0,1.15791471151,0.107804482686,-1.7681596538,-1.7681596538,-0.478523470911,0.842449339354,6.9415211675,1.19841977325
3,35.0,Monolingual,2.0,0.0,left,right,1067.73219723,3.0,47.0,50.0,1.0,836.0,2,,True,34.0,47.0,50.0,3.0,1.35496260269,0.782708221961,-1.16262552579,-1.16262552579,-1.34964359752,0.256917174413,6.97329223642,1.36459762002
3,36.0,Monolingual,2.0,1.0,right,right,934.283595259,4.0,54.0,50.0,1.0,1320.0,2,,True,35.0,54.0,50.0,4.0,0.567423024829,0.782708221961,-0.557091397772,-0.557091397772,0.682970031239,0.256917174413,6.83978002732,0.666265074763
3,37.0,Monolingual,2.0,0.0,right,left,733.823023802,4.0,54.0,50.0,0.34,769.0,2,,True,36.0,50.0,54.0,4.0,-0.615584001783,-0.930508962351,-0.557091397772,-0.557091397772,-0.478523470911,1.4279815043,6.59826788756,-0.59695862899
3,38.0,Monolingual,2.0,1.0,right,right,1000.96654201,5.0,55.0,50.0,0.7,653.0,2,,True,37.0,55.0,50.0,5.0,0.960948764021,0.00397313818254,0.0484427302411,0.0484427302411,0.973343406776,0.256917174413,6.90872135419,1.02686110258
3,39.0,Monolingual,2.0,1.0,right,right,734.023456,5.0,50.0,45.0,0.66,619.0,2,,True,38.0,50.0,45.0,5.0,-0.614401162201,-0.0998582063212,0.0484427302411,0.0484427302411,-0.478523470911,-1.20691323794,6.59854098451,-0.595530201655
3,40.0,Monolingual,2.0,0.0,left,right,884.421256556,4.0,46.0,50.0,0.74,619.0,2,,True,39.0,46.0,50.0,4.0,0.273163178016,0.107804482686,-0.557091397772,-0.557091397772,-1.64001697306,0.256917174413,6.7849334837,0.379391487193
3,41.0,Monolingual,2.0,0.0,left,right,700.637307978,5.0,50.0,55.0,0.66,636.0,2,,True,40.0,50.0,55.0,5.0,-0.811427676765,-0.0998582063212,0.0484427302411,0.0484427302411,-0.478523470911,1.72074758677,6.55199036081,-0.839012170437
3,42.0,Monolingual,2.0,1.0,right,right,884.427897385,6.0,50.0,44.0,1.0,753.0,2,,True,41.0,50.0,44.0,6.0,0.273202368502,0.782708221961,0.653976858254,0.653976858254,-0.478523470911,-1.49967932041,6.78494099234,0.379430760981
3,,Monolingual,2.0,,right,,,6.0,56.0,50.0,,,2,,False,42.0,,,6.0,,,0.653976858254,0.653976858254,,,,
