Participant,Trial,Group,Block,BlockPresentation,Correct,CorrectKey,Response,RT,DotDifference,DotNumberRight,DotNumberLeft,Confidence,IJT,Experiment,ChosenDots,UnchosenDots,AbsDiff,zRT,zConf,zDiff,zAbsDiff,zChosenDots,zUnchosenDots,PickedLeft,LogRT,zLogRT
1,1,Monolingual,1,1,0.0,right,left,4408615960.0,3.0,53.0,50.0,60.0,973000000.0,1,50.0,53.0,3.0,-0.420841962743,0.958773599221,-1.0477656507,-1.0477656507,-0.387369064508,1.2404738393,True,22.2068266359,-0.212325012061
1,2,Monolingual,1,2,1.0,right,right,2673370296.0,4.0,54.0,50.0,50.0,456000000.0,1,54.0,50.0,4.0,-0.988199636512,-0.141999763834,-0.371787811538,-0.371787811538,0.827906431988,0.280106995971,False,21.7066057965,-1.13640370864
1,3,Monolingual,1,3,0.0,right,left,3291776916.0,4.0,50.0,46.0,58.0,842000000.0,1,46.0,50.0,4.0,-0.786004783849,0.73861892661,-0.371787811538,-0.371787811538,-1.602644561,0.280106995971,True,21.914693352,-0.751994939747
1,4,Monolingual,1,4,0.0,right,left,2777240570.0,5.0,55.0,50.0,54.0,1036000000.0,1,50.0,55.0,5.0,-0.954238106884,0.298309581388,0.304190027622,0.304190027622,-0.387369064508,1.88071840152,True,21.744723671,-1.06598697868
1,5,Monolingual,1,5,1.0,left,left,2860096645.0,6.0,50.0,56.0,58.0,876000000.0,1,56.0,50.0,6.0,-0.927147400971,0.73861892661,0.980167866782,0.980167866782,1.43554418024,0.280106995971,True,21.7741212532,-1.01167960623
1,6,Monolingual,1,6,1.0,left,left,1947606404.0,6.0,44.0,50.0,58.0,1187000000.0,1,50.0,44.0,6.0,-1.22549613119,0.73861892661,0.980167866782,0.980167866782,-0.387369064508,-1.64062669069,True,21.3898669704,-1.72152847457
1,7,Monolingual,1,7,1.0,left,left,3383510451.0,5.0,50.0,55.0,62.0,906000000.0,1,55.0,50.0,5.0,-0.756011494654,1.17892827183,0.304190027622,0.304190027622,1.13172530611,0.280106995971,True,21.9421796024,-0.701218449624
1,8,Monolingual,1,8,1.0,right,right,2842230508.0,5.0,50.0,45.0,50.0,547000000.0,1,50.0,45.0,5.0,-0.932988931158,-0.141999763834,0.304190027622,0.304190027622,-0.387369064508,-1.32050440958,False,21.767854971,-1.02325556908
1,9,Monolingual,1,9,0.0,right,left,3099286705.0,4.0,50.0,46.0,50.0,739000000.0,1,46.0,50.0,4.0,-0.848941577528,-0.141999763834,-0.371787811538,-0.371787811538,-1.602644561,0.280106995971,True,21.8544378268,-0.863307469693
1,10,Monolingual,1,10,1.0,left,left,4132374784.0,5.0,45.0,50.0,50.0,470000000.0,1,50.0,45.0,5.0,-0.511162056471,-0.141999763834,0.304190027622,0.304190027622,-0.387369064508,-1.32050440958,True,22.1421180869,-0.331863797514
1,11,Monolingual,1,11,1.0,right,right,1744905357.0,5.0,50.0,45.0,50.0,1392000000.0,1,50.0,45.0,5.0,-1.29177147011,-0.141999763834,0.304190027622,0.304190027622,-0.387369064508,-1.32050440958,False,21.2799661545,-1.92455280857
1,12,Monolingual,1,12,1.0,left,left,3206062534.0,4.0,46.0,50.0,62.0,795000000.0,1,50.0,46.0,4.0,-0.814030044704,1.17892827183,-0.371787811538,-0.371787811538,-0.387369064508,-1.00038212847,True,21.8883093962,-0.800735115084
1,13,Monolingual,1,13,1.0,left,left,5309468694.0,4.0,46.0,50.0,54.0,905000000.0,1,50.0,46.0,4.0,-0.126298243559,0.298309581388,-0.371787811538,-0.371787811538,-0.387369064508,-1.00038212847,True,22.3927576096,0.131152984643
1,14,Monolingual,1,14,1.0,left,left,3228062586.0,3.0,50.0,53.0,50.0,737000000.0,1,53.0,50.0,3.0,-0.806836885496,-0.141999763834,-1.0477656507,-1.0477656507,0.524087557864,0.280106995971,True,21.8951479756,-0.788101923827
1,15,Monolingual,1,15,1.0,right,right,3907825620.0,3.0,53.0,50.0,60.0,1090000000.0,1,53.0,50.0,3.0,-0.584580877781,0.958773599221,-1.0477656507,-1.0477656507,0.524087557864,0.280106995971,False,22.0862469488,-0.435076867355
1,16,Monolingual,1,16,1.0,right,right,2985888442.0,2.0,50.0,48.0,60.0,907000000.0,1,50.0,48.0,2.0,-0.886018388056,0.958773599221,-1.72374348986,-1.72374348986,-0.387369064508,-0.360137566249,False,21.817163175,-0.9321664794
1,17,Monolingual,1,17,0.0,right,left,2894913182.0,2.0,50.0,48.0,60.0,987000000.0,1,48.0,50.0,2.0,-0.915763750892,0.958773599221,-1.72374348986,-1.72374348986,-0.995006812756,0.280106995971,True,21.7862209586,-0.989327318749
1,18,Monolingual,1,18,1.0,left,left,1930252244.0,3.0,47.0,50.0,50.0,439000000.0,1,50.0,47.0,3.0,-1.23117026486,-0.141999763834,-1.0477656507,-1.0477656507,-0.387369064508,-0.680259847359,True,21.3809165277,-1.73806299851
1,19,Monolingual,1,19,1.0,right,right,5087309653.0,3.0,50.0,47.0,50.0,907000000.0,1,50.0,47.0,3.0,-0.198935587841,-0.141999763834,-1.0477656507,-1.0477656507,-0.387369064508,-0.680259847359,False,22.3500149724,0.0521927387709
1,20,Monolingual,1,20,1.0,right,right,2025953302.0,2.0,50.0,48.0,54.0,798000000.0,1,50.0,48.0,2.0,-1.19987975034,0.298309581388,-1.72374348986,-1.72374348986,-0.387369064508,-0.360137566249,False,21.4293061931,-1.6486707632
1,21,Monolingual,1,21,1.0,left,left,2587136086.0,2.0,48.0,50.0,58.0,1018000000.0,1,50.0,48.0,2.0,-1.01639486085,0.73861892661,-1.72374348986,-1.72374348986,-0.387369064508,-0.360137566249,True,21.6738173426,-1.19697517906
1,22,Monolingual,1,22,1.0,left,left,3084668846.0,1.0,50.0,51.0,50.0,441000000.0,1,51.0,50.0,1.0,-0.853721047461,-0.141999763834,-2.39972132902,-2.39972132902,-0.0835501903841,0.280106995971,True,21.8497101453,-0.872041111805
1,23,Monolingual,1,23,0.0,left,right,5066122845.0,1.0,50.0,51.0,50.0,766000000.0,1,50.0,51.0,1.0,-0.205862847969,-0.141999763834,-2.39972132902,-2.39972132902,-0.387369064508,0.600229277082,False,22.3458416371,0.044483163576
1,24,Monolingual,1,24,0.0,right,left,4225700279.0,2.0,52.0,50.0,50.0,1224000000.0,1,50.0,52.0,2.0,-0.480648258428,-0.141999763834,-1.72374348986,-1.72374348986,-0.387369064508,0.920351558192,True,22.1644508305,-0.29060759425
1,25,Monolingual,1,25,1.0,left,left,3420699794.0,3.0,50.0,53.0,58.0,1094000000.0,1,53.0,50.0,3.0,-0.74385202953,0.73861892661,-1.0477656507,-1.0477656507,0.524087557864,0.280106995971,True,21.9531109852,-0.681024452995
1,26,Monolingual,2,1,1.0,right,right,6063299178.61,3.0,50.0,47.0,50.0,628000000.0,1,50.0,47.0,3.0,0.120174932567,-0.141999763834,-1.0477656507,-1.0477656507,-0.387369064508,-0.680259847359,False,22.5255199078,0.37641028271
1,27,Monolingual,2,2,0.0,right,left,1977147543.0,2.0,50.0,48.0,50.0,864000000.0,1,48.0,50.0,2.0,-1.21583733057,-0.141999763834,-1.72374348986,-1.72374348986,-0.995006812756,0.280106995971,True,21.4049210081,-1.6937185266
1,28,Monolingual,2,3,1.0,left,left,3566151238.0,3.0,50.0,53.0,60.0,672000000.0,1,53.0,50.0,3.0,-0.696295078589,0.958773599221,-1.0477656507,-1.0477656507,0.524087557864,0.280106995971,True,21.9947527666,-0.604097863724
1,29,Monolingual,2,4,1.0,left,left,3555814470.0,3.0,50.0,53.0,42.0,967000000.0,1,53.0,50.0,3.0,-0.699674798687,-1.02261845428,-1.0477656507,-1.0477656507,0.524087557864,0.280106995971,True,21.9918499794,-0.609460302774
1,30,Monolingual,2,5,1.0,right,right,4555352273.0,2.0,52.0,50.0,50.0,470000000.0,1,52.0,50.0,2.0,-0.372864909736,-0.141999763834,-1.72374348986,-1.72374348986,0.22026868374,0.280106995971,False,22.2395687023,-0.151839235183
1,31,Monolingual,2,6,1.0,right,right,3195975939.0,2.0,52.0,50.0,40.0,716000000.0,1,52.0,50.0,2.0,-0.817327967986,-1.24277312689,-1.72374348986,-1.72374348986,0.22026868374,0.280106995971,False,21.8851583363,-0.80655619868
1,32,Monolingual,2,7,0.0,left,right,4202248739.0,1.0,50.0,51.0,50.0,923000000.0,1,50.0,51.0,1.0,-0.488315997617,-0.141999763834,-2.39972132902,-2.39972132902,-0.387369064508,0.600229277082,False,22.158885633,-0.300888414389
1,33,Monolingual,2,8,1.0,left,left,5441351808.0,2.0,48.0,50.0,50.0,1157000000.0,1,50.0,48.0,2.0,-0.0831776074897,-0.141999763834,-1.72374348986,-1.72374348986,-0.387369064508,-0.360137566249,True,22.4172933611,0.176478895673
1,34,Monolingual,2,9,1.0,right,right,5656111316.0,2.0,50.0,48.0,58.0,922000000.0,1,50.0,48.0,2.0,-0.0129596219867,0.73861892661,-1.72374348986,-1.72374348986,-0.387369064508,-0.360137566249,False,22.4560024464,0.247987793949
1,35,Monolingual,2,10,0.0,right,left,1687725697.0,1.0,51.0,50.0,50.0,548000000.0,1,50.0,51.0,1.0,-1.31046698946,-0.141999763834,-2.39972132902,-2.39972132902,-0.387369064508,0.600229277082,True,21.2466477181,-1.98610333741
1,36,Monolingual,2,11,1.0,left,left,8062768828.0,2.0,50.0,52.0,50.0,595000000.0,1,52.0,50.0,2.0,0.773923547294,-0.141999763834,-1.72374348986,-1.72374348986,0.22026868374,0.280106995971,True,22.8105228615,0.902908055816
1,37,Monolingual,2,12,0.0,right,left,4127561426.0,2.0,50.0,48.0,34.0,955000000.0,1,48.0,50.0,2.0,-0.512735836861,-1.90323714472,-1.72374348986,-1.72374348986,-0.995006812756,0.280106995971,True,22.1409526158,-0.334016820633
1,38,Monolingual,2,13,0.0,right,left,6724500987.0,3.0,53.0,50.0,50.0,609000000.0,1,50.0,53.0,3.0,0.336362143221,-0.141999763834,-1.0477656507,-1.0477656507,-0.387369064508,1.2404738393,True,22.629023557,0.567616865322
1,39,Monolingual,2,14,1.0,right,right,1633188188.0,4.0,54.0,50.0,50.0,735000000.0,1,54.0,50.0,4.0,-1.32829862845,-0.141999763834,-0.371787811538,-0.371787811538,0.827906431988,0.280106995971,False,21.213799885,-2.04678450157
1,40,Monolingual,2,15,1.0,right,right,4370264570.0,4.0,54.0,50.0,40.0,846000000.0,1,54.0,50.0,4.0,-0.433381371927,-1.24277312689,-0.371787811538,-0.371787811538,0.827906431988,0.280106995971,False,22.1980893866,-0.228465694994
1,41,Monolingual,2,16,0.0,right,left,5358722636.0,3.0,53.0,50.0,50.0,454000000.0,1,50.0,53.0,3.0,-0.110194124968,-0.141999763834,-1.0477656507,-1.0477656507,-0.387369064508,1.2404738393,True,22.4019914694,0.148211076853
1,42,Monolingual,2,17,0.0,right,left,5427149669.0,4.0,54.0,50.0,50.0,470000000.0,1,50.0,54.0,4.0,-0.0878211531921,-0.141999763834,-0.371787811538,-0.371787811538,-0.387369064508,1.56059612041,True,22.4146799102,0.171650959604
1,43,Monolingual,2,18,0.0,right,left,3538981208.0,5.0,55.0,50.0,50.0,517000000.0,1,50.0,55.0,5.0,-0.705178619021,-0.141999763834,0.304190027622,0.304190027622,-0.387369064508,1.88071840152,True,21.9871047283,-0.618226401924
1,44,Monolingual,2,19,1.0,left,left,9440064948.0,6.0,50.0,56.0,40.0,4811000000.0,1,56.0,50.0,6.0,1.22424567686,-1.24277312689,0.980167866782,0.980167866782,1.43554418024,0.280106995971,True,22.9682286972,1.19424458475
1,45,Monolingual,2,20,1.0,left,left,13358528124.0,6.0,50.0,56.0,26.0,1892000000.0,1,56.0,50.0,6.0,2.50543035198,-2.78385583517,0.980167866782,0.980167866782,1.43554418024,0.280106995971,True,23.3154208286,1.83562700436
1,46,Monolingual,2,21,1.0,left,left,5315179775.0,5.0,50.0,55.0,58.0,779000000.0,1,55.0,50.0,5.0,-0.124430942751,0.73861892661,0.304190027622,0.304190027622,1.13172530611,0.280106995971,True,22.3938326723,0.133138992513
1,47,Monolingual,2,22,1.0,right,right,4373336505.0,5.0,50.0,45.0,50.0,411000000.0,1,50.0,45.0,5.0,-0.432376968959,-0.141999763834,0.304190027622,0.304190027622,-0.387369064508,-1.32050440958,False,22.198792057,-0.227167622706
1,48,Monolingual,2,23,1.0,right,right,2271936143.0,4.0,50.0,46.0,58.0,704000000.0,1,50.0,46.0,4.0,-1.11945295236,0.73861892661,-0.371787811538,-0.371787811538,-0.387369064508,-1.00038212847,False,21.5438982313,-1.43698013988
1,49,Monolingual,2,24,1.0,left,left,8277589270.0,4.0,50.0,54.0,42.0,912000000.0,1,54.0,50.0,4.0,0.844161455839,-1.02261845428,-0.371787811538,-0.371787811538,0.827906431988,0.280106995971,True,22.836817612,0.951483438573
1,50,Monolingual,2,25,0.0,right,left,2129968915.0,3.0,50.0,47.0,50.0,760000000.0,1,47.0,50.0,3.0,-1.16587070053,-0.141999763834,-1.0477656507,-1.0477656507,-1.29882568688,0.280106995971,True,21.4793732227,-1.55617986371
1,51,Monolingual,3,1,0.0,right,left,4293132292.22,4.0,50.0,46.0,40.0,1363000000.0,1,46.0,50.0,4.0,-0.458600619323,-1.24277312689,-0.371787811538,-0.371787811538,-1.602644561,0.280106995971,True,22.1802824415,-0.261361202878
1,52,Monolingual,3,2,1.0,right,right,9276060470.0,5.0,50.0,45.0,60.0,880000000.0,1,50.0,45.0,5.0,1.1706226072,0.958773599221,0.304190027622,0.304190027622,-0.387369064508,-1.32050440958,False,22.9507027753,1.16186822262
1,53,Monolingual,3,3,1.0,right,right,5157136907.0,5.0,55.0,50.0,40.0,1675000000.0,1,55.0,50.0,5.0,-0.176104798393,-1.24277312689,0.304190027622,0.304190027622,1.13172530611,0.280106995971,False,22.3636473995,0.0773764865582
1,54,Monolingual,3,4,0.0,left,right,7560165211.0,4.0,50.0,54.0,40.0,872000000.0,1,50.0,54.0,4.0,0.609591761377,-1.24277312689,-0.371787811538,-0.371787811538,-0.387369064508,1.56059612041,False,22.7461588802,0.784005804497
1,55,Monolingual,3,5,1.0,left,left,2345684543.0,5.0,50.0,55.0,60.0,1080000000.0,1,55.0,50.0,5.0,-1.09534010106,0.958773599221,0.304190027622,0.304190027622,1.13172530611,0.280106995971,True,21.5758431122,-1.3779670369
1,56,Monolingual,3,6,1.0,right,right,4520366569.0,5.0,50.0,45.0,50.0,632000000.0,1,50.0,45.0,5.0,-0.384303870829,-0.141999763834,0.304190027622,0.304190027622,-0.387369064508,-1.32050440958,False,22.2318589268,-0.166081823088
1,57,Monolingual,3,7,1.0,left,left,6824599477.0,4.0,50.0,54.0,60.0,721000000.0,1,54.0,50.0,4.0,0.369090446546,0.958773599221,-0.371787811538,-0.371787811538,0.827906431988,0.280106995971,True,22.6437994916,0.594913061948
1,58,Monolingual,3,8,0.0,left,right,8716930935.0,4.0,50.0,54.0,40.0,763000000.0,1,50.0,54.0,4.0,0.987809050077,-1.24277312689,-0.371787811538,-0.371787811538,-0.387369064508,1.56059612041,False,22.8885330559,1.04701952236
1,59,Monolingual,3,9,0.0,right,left,5992144815.0,5.0,50.0,45.0,62.0,925000000.0,1,45.0,50.0,5.0,0.0969102300214,1.17892827183,0.304190027622,0.304190027622,-1.90646343513,0.280106995971,True,22.5137152509,0.354603050631
1,60,Monolingual,3,10,1.0,left,left,1570512035.0,6.0,44.0,50.0,54.0,891000000.0,1,50.0,44.0,6.0,-1.3487912867,0.298309581388,0.980167866782,0.980167866782,-0.387369064508,-1.64062669069,True,21.1746675401,-2.11907530476
1,61,Monolingual,3,11,1.0,right,right,6343474044.0,6.0,50.0,44.0,56.0,878000000.0,1,50.0,44.0,6.0,0.211781189349,0.518464253999,0.980167866782,0.980167866782,-0.387369064508,-1.64062669069,False,22.5706924118,0.45985932226
1,62,Monolingual,3,12,1.0,right,right,3879982955.0,5.0,50.0,45.0,60.0,1107000000.0,1,50.0,45.0,5.0,-0.593684343633,0.958773599221,0.304190027622,0.304190027622,-0.387369064508,-1.32050440958,False,22.0790965975,-0.448286007797
1,63,Monolingual,3,13,1.0,left,left,4134589851.0,5.0,50.0,55.0,36.0,1125000000.0,1,55.0,50.0,5.0,-0.510437815929,-1.68308247211,0.304190027622,0.304190027622,1.13172530611,0.280106995971,True,22.1426539709,-0.330873836775
1,64,Monolingual,3,14,0.0,left,right,4869330320.0,4.0,46.0,50.0,40.0,706000000.0,1,46.0,50.0,4.0,-0.270206330575,-1.24277312689,-0.371787811538,-0.371787811538,-1.602644561,0.280106995971,False,22.3062222533,-0.0287073669038
1,65,Monolingual,3,15,1.0,right,right,4192388803.0,5.0,50.0,45.0,58.0,907000000.0,1,50.0,45.0,5.0,-0.491539812244,0.73861892661,0.304190027622,0.304190027622,-0.387369064508,-1.32050440958,False,22.1565365285,-0.305228012582
1,66,Monolingual,3,16,1.0,left,left,4221377082.0,5.0,50.0,55.0,46.0,938000000.0,1,55.0,50.0,5.0,-0.482061775283,-0.582309109056,0.304190027622,0.304190027622,1.13172530611,0.280106995971,True,22.1634272345,-0.292498525615
1,67,Monolingual,3,17,1.0,right,right,4335488672.0,4.0,50.0,46.0,54.0,641000000.0,1,50.0,46.0,4.0,-0.444751734638,0.298309581388,-0.371787811538,-0.371787811538,-0.387369064508,-1.00038212847,False,22.1901001679,-0.243224509805
1,68,Monolingual,3,18,0.0,left,right,4677897583.0,4.0,46.0,50.0,62.0,907000000.0,1,46.0,50.0,4.0,-0.332797371487,1.17892827183,-0.371787811538,-0.371787811538,-1.602644561,0.280106995971,False,22.2661146115,-0.102799876444
1,69,Monolingual,3,19,1.0,right,right,2774512894.0,5.0,55.0,50.0,56.0,1062000000.0,1,55.0,50.0,5.0,-0.955129950582,0.518464253999,0.304190027622,0.304190027622,1.13172530611,0.280106995971,False,21.743741035,-1.06780224278
1,70,Monolingual,3,20,0.0,left,right,3855957490.0,5.0,50.0,55.0,62.0,973000000.0,1,50.0,55.0,5.0,-0.601539733919,1.17892827183,0.304190027622,0.304190027622,-0.387369064508,1.88071840152,False,22.0728851893,-0.459760599838
1,71,Monolingual,3,21,1.0,left,left,4467407432.0,6.0,50.0,56.0,38.0,1109000000.0,1,56.0,50.0,6.0,-0.401619443716,-1.4629277995,0.980167866782,0.980167866782,1.43554418024,0.280106995971,True,22.2200740845,-0.187852451014
1,72,Monolingual,3,22,1.0,right,right,4276849691.0,6.0,56.0,50.0,42.0,532000000.0,1,56.0,50.0,6.0,-0.463924395053,-1.02261845428,0.980167866782,0.980167866782,1.43554418024,0.280106995971,False,22.176482522,-0.268380951716
1,73,Monolingual,3,23,1.0,left,left,5084141538.0,5.0,50.0,55.0,50.0,675000000.0,1,55.0,50.0,5.0,-0.199971437919,-0.141999763834,0.304190027622,0.304190027622,1.13172530611,0.280106995971,True,22.3493920298,0.051041951086
1,74,Monolingual,3,24,0.0,right,left,4063241805.0,5.0,50.0,45.0,56.0,688000000.0,1,45.0,50.0,5.0,-0.533765845064,0.518464253999,0.304190027622,0.304190027622,-1.90646343513,0.280106995971,True,22.1252469661,-0.363030518492
1,75,Monolingual,3,25,0.0,right,left,2436142531.0,6.0,50.0,44.0,58.0,926000000.0,1,44.0,50.0,6.0,-1.065763866,0.73861892661,0.980167866782,0.980167866782,-2.21028230925,0.280106995971,True,21.6136816953,-1.30806625348
1,76,Monolingual,4,1,1.0,left,left,4453041851.71,7.0,43.0,50.0,60.0,917000000.0,1,50.0,43.0,7.0,-0.406316428348,0.958773599221,1.65614570594,1.65614570594,-0.387369064508,-1.9607489718,True,22.2168532618,-0.193802410302
1,77,Monolingual,4,2,0.0,right,left,1933907272.0,7.0,57.0,50.0,50.0,517000000.0,1,50.0,57.0,7.0,-1.22997521322,-0.141999763834,1.65614570594,1.65614570594,-0.387369064508,2.52096296374,True,21.3828082866,-1.73456827384
1,78,Monolingual,4,3,1.0,right,right,1698199246.0,8.0,50.0,42.0,64.0,1609000000.0,1,50.0,42.0,8.0,-1.30704254731,1.39908294444,2.3321235451,2.3321235451,-0.387369064508,-2.28087125291,False,21.2528342595,-1.97467468299
1,79,Monolingual,4,4,1.0,right,right,2794100704.0,8.0,58.0,50.0,50.0,735000000.0,1,58.0,50.0,8.0,-0.948725500454,-0.141999763834,2.3321235451,2.3321235451,2.04318192848,0.280106995971,False,21.7507761401,-1.05480600155
1,80,Monolingual,4,5,1.0,left,left,2572593420.0,7.0,50.0,57.0,56.0,844000000.0,1,57.0,50.0,7.0,-1.02114974561,0.518464253999,1.65614570594,1.65614570594,1.73936305436,0.280106995971,True,21.6681803399,-1.20738864782
1,81,Monolingual,4,6,1.0,left,left,3941585630.0,7.0,43.0,50.0,60.0,909000000.0,1,50.0,43.0,7.0,-0.573542670836,0.958773599221,1.65614570594,1.65614570594,-0.387369064508,-1.9607489718,True,22.0948489235,-0.419186082991
1,82,Monolingual,4,7,1.0,right,right,5131367485.0,6.0,56.0,50.0,62.0,905000000.0,1,56.0,50.0,6.0,-0.18453039462,1.17892827183,0.980167866782,0.980167866782,1.43554418024,0.280106995971,False,22.3586380269,0.068122464897
1,83,Monolingual,4,8,1.0,right,right,3646193417.0,6.0,56.0,50.0,62.0,1301000000.0,1,56.0,50.0,6.0,-0.670124406952,1.17892827183,0.980167866782,0.980167866782,1.43554418024,0.280106995971,False,22.0169495609,-0.563092805302
1,84,Monolingual,4,9,1.0,left,left,6951158852.0,5.0,50.0,55.0,58.0,938000000.0,1,55.0,50.0,5.0,0.410470427539,0.73861892661,0.304190027622,0.304190027622,1.13172530611,0.280106995971,True,22.6621742239,0.628857466793
1,85,Monolingual,4,10,1.0,right,right,3746067703.0,5.0,55.0,50.0,50.0,456000000.0,1,55.0,50.0,5.0,-0.637469409594,-0.141999763834,0.304190027622,0.304190027622,1.13172530611,0.280106995971,False,22.0439725142,-0.513172183206
1,86,Monolingual,4,11,1.0,right,right,3330872935.0,4.0,50.0,46.0,42.0,663000000.0,1,50.0,46.0,4.0,-0.773221910015,-1.02261845428,-0.371787811538,-0.371787811538,-0.387369064508,-1.00038212847,False,21.9265002492,-0.730183568914
1,87,Monolingual,4,12,0.0,left,right,6751036185.0,4.0,46.0,50.0,44.0,815000000.0,1,46.0,50.0,4.0,0.345038118343,-0.802463781667,-0.371787811538,-0.371787811538,-1.602644561,0.280106995971,False,22.6329618389,0.574892216826
1,88,Monolingual,4,13,1.0,left,left,3127694310.0,5.0,45.0,50.0,38.0,1361000000.0,1,50.0,45.0,5.0,-0.839653398324,-1.4629277995,0.304190027622,0.304190027622,-0.387369064508,-1.32050440958,True,21.8635619279,-0.846452139483
1,89,Monolingual,4,14,1.0,right,right,4956988638.0,5.0,50.0,45.0,60.0,583000000.0,1,50.0,45.0,5.0,-0.241545478444,0.958773599221,0.304190027622,0.304190027622,-0.387369064508,-1.32050440958,False,22.3240642639,0.00425291899689
1,90,Monolingual,4,15,1.0,right,right,6550305441.0,4.0,54.0,50.0,58.0,626000000.0,1,54.0,50.0,4.0,0.279406991677,0.73861892661,-0.371787811538,-0.371787811538,0.827906431988,0.280106995971,False,22.6027775177,0.519131468748
1,91,Monolingual,4,16,1.0,right,right,2505458955.0,4.0,54.0,50.0,50.0,641000000.0,1,54.0,50.0,4.0,-1.04310009805,-0.141999763834,-0.371787811538,-0.371787811538,0.827906431988,0.280106995971,False,21.6417377703,-1.25623710302
1,92,Monolingual,4,17,0.0,left,right,5770467298.0,3.0,47.0,50.0,42.0,483000000.0,1,47.0,50.0,3.0,0.0244303253131,-1.02261845428,-1.0477656507,-1.0477656507,-1.29882568688,0.280106995971,False,22.4760189017,0.284965021768
1,93,Monolingual,4,18,0.0,right,left,4013757103.0,4.0,54.0,50.0,50.0,737000000.0,1,50.0,54.0,4.0,-0.549945413178,-0.141999763834,-0.371787811538,-0.371787811538,-0.387369064508,1.56059612041,True,22.112993573,-0.385666719527
1,94,Monolingual,4,19,1.0,left,left,4863387247.0,5.0,50.0,55.0,42.0,860000000.0,1,55.0,50.0,5.0,-0.272149483722,-1.02261845428,0.304190027622,0.304190027622,1.13172530611,0.280106995971,True,22.3050009965,-0.0309634452193
1,95,Monolingual,4,20,1.0,right,right,2587742335.0,5.0,50.0,45.0,56.0,846000000.0,1,50.0,45.0,5.0,-1.01619664107,0.518464253999,0.304190027622,0.304190027622,-0.387369064508,-1.32050440958,False,21.6740516472,-1.19654233839
1,96,Monolingual,4,21,0.0,right,left,1864193457.0,4.0,50.0,46.0,38.0,719000000.0,1,46.0,50.0,4.0,-1.25276891253,-1.4629277995,-0.371787811538,-0.371787811538,-1.602644561,0.280106995971,True,21.3460943338,-1.80239148113
1,97,Monolingual,4,22,1.0,right,right,5630243808.0,5.0,55.0,50.0,58.0,782000000.0,1,55.0,50.0,5.0,-0.0214172885118,0.73861892661,0.304190027622,0.304190027622,1.13172530611,0.280106995971,False,22.4514185833,0.239519833622
1,98,Monolingual,4,23,1.0,left,left,4599976341.0,5.0,45.0,50.0,58.0,724000000.0,1,50.0,45.0,5.0,-0.358274579421,0.73861892661,0.304190027622,0.304190027622,-0.387369064508,-1.32050440958,True,22.2493169972,-0.133830805929
1,99,Monolingual,4,24,1.0,right,right,2473955712.0,4.0,54.0,50.0,60.0,901000000.0,1,54.0,50.0,4.0,-1.05340043018,0.958773599221,-0.371787811538,-0.371787811538,0.827906431988,0.280106995971,False,21.6290842094,-1.27961255068
1,100,Monolingual,4,25,1.0,right,right,4465270005.0,4.0,54.0,50.0,50.0,453000000.0,1,54.0,50.0,4.0,-0.402318299006,-0.141999763834,-0.371787811538,-0.371787811538,0.827906431988,0.280106995971,False,22.2195955209,-0.188736521355
1,101,Monolingual,5,1,1.0,left,left,5416326801.12,3.0,50.0,53.0,58.0,862000000.0,1,53.0,50.0,3.0,-0.0913598089981,0.73861892661,-1.0477656507,-1.0477656507,0.524087557864,0.280106995971,True,22.4126837107,0.167963297392
1,102,Monolingual,5,2,1.0,right,right,5561169618.0,3.0,53.0,50.0,58.0,989000000.0,1,53.0,50.0,3.0,-0.0440018553941,0.73861892661,-1.0477656507,-1.0477656507,0.524087557864,0.280106995971,False,22.439074286,0.216715701449
1,103,Monolingual,5,3,0.0,left,right,5723272236.0,2.0,50.0,52.0,54.0,1019000000.0,1,50.0,52.0,2.0,0.00899938020527,0.298309581388,-1.72374348986,-1.72374348986,-0.387369064508,0.920351558192,False,22.467806548,0.269794000263
1,104,Monolingual,5,4,0.0,right,left,3672204628.0,3.0,53.0,50.0,58.0,955000000.0,1,50.0,53.0,3.0,-0.661619755149,0.73861892661,-1.0477656507,-1.0477656507,-0.387369064508,1.2404738393,True,22.0240580347,-0.549961026846
1,105,Monolingual,5,5,0.0,left,right,3335076235.0,4.0,46.0,50.0,58.0,909000000.0,1,46.0,50.0,4.0,-0.771847594805,0.73861892661,-0.371787811538,-0.371787811538,-1.602644561,0.280106995971,False,21.9277613751,-0.72785383876
1,106,Monolingual,5,6,1.0,left,left,3521396292.0,5.0,45.0,50.0,40.0,548000000.0,1,50.0,45.0,5.0,-0.710928200906,-1.24277312689,0.304190027622,0.304190027622,-0.387369064508,-1.32050440958,True,21.9821234218,-0.627428576057
1,107,Monolingual,5,7,1.0,left,left,6444753088.0,5.0,50.0,55.0,42.0,751000000.0,1,55.0,50.0,5.0,0.244895487801,-1.02261845428,0.304190027622,0.304190027622,1.13172530611,0.280106995971,True,22.586532162,0.489120749521
1,108,Monolingual,5,8,1.0,right,right,4381475248.0,4.0,54.0,50.0,60.0,875000000.0,1,54.0,50.0,4.0,-0.429715917333,0.958773599221,-0.371787811538,-0.371787811538,0.827906431988,0.280106995971,False,22.2006513192,-0.223732930528
1,109,Monolingual,5,9,0.0,right,left,6566148313.0,4.0,54.0,50.0,50.0,721000000.0,1,50.0,54.0,4.0,0.284586993097,-0.141999763834,-0.371787811538,-0.371787811538,-0.387369064508,1.56059612041,True,22.6051932438,0.523594139695
1,110,Monolingual,5,10,1.0,left,left,2191998336.0,5.0,50.0,55.0,50.0,675000000.0,1,55.0,50.0,5.0,-1.14558949843,-0.141999763834,0.304190027622,0.304190027622,1.13172530611,0.280106995971,True,21.5080794469,-1.50314966546
1,111,Monolingual,5,11,1.0,right,right,1867850581.0,5.0,55.0,50.0,50.0,578000000.0,1,55.0,50.0,5.0,-1.25157317558,-0.141999763834,0.304190027622,0.304190027622,1.13172530611,0.280106995971,False,21.3480541848,-1.79877096707
1,112,Monolingual,5,12,0.0,left,right,5583920889.0,4.0,50.0,54.0,58.0,579000000.0,1,50.0,54.0,4.0,-0.036563076864,0.73861892661,-0.371787811538,-0.371787811538,-0.387369064508,1.56059612041,False,22.4431570349,0.224257932637
1,113,Monolingual,5,13,0.0,right,left,3403067060.0,5.0,50.0,45.0,42.0,1088000000.0,1,45.0,50.0,5.0,-0.749617246036,-1.02261845428,0.304190027622,0.304190027622,-1.90646343513,0.280106995971,True,21.9479429384,-0.690571600134
1,114,Monolingual,5,14,1.0,right,right,2807896466.0,6.0,50.0,44.0,60.0,771000000.0,1,50.0,44.0,6.0,-0.944214824185,0.958773599221,0.980167866782,0.980167866782,-0.387369064508,-1.64062669069,False,21.7557014513,-1.04570726984
1,115,Monolingual,5,15,1.0,left,left,2727387571.0,6.0,50.0,56.0,50.0,579000000.0,1,56.0,50.0,6.0,-0.970538093756,-0.141999763834,0.980167866782,0.980167866782,1.43554418024,0.280106995971,True,21.7266100543,-1.0994490138
1,116,Monolingual,5,16,1.0,right,right,6514950729.0,5.0,55.0,50.0,60.0,1020000000.0,1,55.0,50.0,5.0,0.267847379356,0.958773599221,0.304190027622,0.304190027622,1.13172530611,0.280106995971,False,22.5973654848,0.50913359593
1,117,Monolingual,5,17,1.0,left,left,1495470961.0,5.0,50.0,55.0,50.0,409000000.0,1,55.0,50.0,5.0,-1.373326792,-0.141999763834,0.304190027622,0.304190027622,1.13172530611,0.280106995971,True,21.1257070183,-2.2095221067
1,118,Monolingual,5,18,0.0,right,left,6049808483.0,4.0,54.0,50.0,44.0,1172000000.0,1,50.0,54.0,4.0,0.115764001113,-0.802463781667,-0.371787811538,-0.371787811538,-0.387369064508,1.56059612041,True,22.5232924528,0.372295412712
1,119,Monolingual,5,19,0.0,right,left,5520289113.0,5.0,50.0,45.0,32.0,1029000000.0,1,45.0,50.0,5.0,-0.0573681865716,-2.12339181733,0.304190027622,0.304190027622,-1.90646343513,0.280106995971,True,22.4316960714,0.203085619654
1,120,Monolingual,5,20,1.0,right,right,6766701039.0,6.0,56.0,50.0,58.0,1543000000.0,1,56.0,50.0,6.0,0.350159914818,0.73861892661,0.980167866782,0.980167866782,1.43554418024,0.280106995971,False,22.635279514,0.579173754004
1,121,Monolingual,5,21,1.0,left,left,2653426875.0,6.0,44.0,50.0,40.0,1343000000.0,1,50.0,44.0,6.0,-0.994720357572,-1.24277312689,0.980167866782,0.980167866782,-0.387369064508,-1.64062669069,True,21.6991178019,-1.1502365915
1,122,Monolingual,5,22,1.0,left,left,6304849420.0,5.0,45.0,50.0,50.0,614000000.0,1,50.0,45.0,5.0,0.1991524433,-0.141999763834,0.304190027622,0.304190027622,-0.387369064508,-1.32050440958,True,22.5645849234,0.448576705815
1,123,Monolingual,5,23,1.0,right,right,5013677556.0,5.0,55.0,50.0,40.0,955000000.0,1,55.0,50.0,5.0,-0.223010412596,-1.24277312689,0.304190027622,0.304190027622,1.13172530611,0.280106995971,False,22.3354355259,0.0252595227775
1,124,Monolingual,5,24,1.0,right,right,3494929783.0,4.0,54.0,50.0,62.0,969000000.0,1,54.0,50.0,4.0,-0.719581717403,1.17892827183,-0.371787811538,-0.371787811538,0.827906431988,0.280106995971,False,21.9745791217,-0.641365474313
1,125,Monolingual,5,25,1.0,left,left,5890884081.0,4.0,50.0,54.0,50.0,609000000.0,1,54.0,50.0,4.0,0.0638019182253,-0.141999763834,-0.371787811538,-0.371787811538,0.827906431988,0.280106995971,True,22.496671922,0.323118202438
1,126,Monolingual,6,1,1.0,right,right,4913322795.87,3.0,53.0,50.0,50.0,465000000.0,1,53.0,50.0,3.0,-0.255822506261,-0.141999763834,-1.0477656507,-1.0477656507,0.524087557864,0.280106995971,False,22.3152162904,-0.0120923093009
1,127,Monolingual,6,2,0.0,right,left,1796945615.0,3.0,53.0,50.0,62.0,989000000.0,1,50.0,53.0,3.0,-1.27475633483,1.17892827183,-1.0477656507,-1.0477656507,-0.387369064508,1.2404738393,True,21.30935418,-1.87026309057
1,128,Monolingual,6,3,1.0,left,left,3608795481.0,4.0,50.0,54.0,42.0,1254000000.0,1,54.0,50.0,4.0,-0.682352073854,-1.02261845428,-0.371787811538,-0.371787811538,0.827906431988,0.280106995971,True,22.0066398918,-0.582138284393
1,129,Monolingual,6,4,0.0,left,right,7169890262.0,4.0,46.0,50.0,60.0,878000000.0,1,46.0,50.0,4.0,0.481987070129,0.958773599221,-0.371787811538,-0.371787811538,-1.602644561,0.280106995971,False,22.6931561863,0.686091730429
1,130,Monolingual,6,5,1.0,right,right,5740333386.0,5.0,50.0,45.0,56.0,1313000000.0,1,50.0,45.0,5.0,0.0145777110299,0.518464253999,0.304190027622,0.304190027622,-0.387369064508,-1.32050440958,False,22.4707831268,0.27529275765
1,131,Monolingual,6,6,1.0,left,left,6389370645.0,5.0,50.0,55.0,60.0,862000000.0,1,55.0,50.0,5.0,0.226787588338,0.958773599221,0.304190027622,0.304190027622,1.13172530611,0.280106995971,True,22.5779016099,0.473177172789
1,132,Monolingual,6,7,1.0,right,right,4633145994.0,4.0,50.0,46.0,60.0,2033000000.0,1,50.0,46.0,4.0,-0.347429396197,0.958773599221,-0.371787811538,-0.371787811538,-0.387369064508,-1.00038212847,False,22.2565019546,-0.120557736075
1,133,Monolingual,6,8,1.0,left,left,8024998617.0,4.0,46.0,50.0,58.0,751000000.0,1,50.0,46.0,4.0,0.761574160982,0.73861892661,-0.371787811538,-0.371787811538,-0.387369064508,-1.00038212847,True,22.8058273336,0.894233812453
1,134,Monolingual,6,9,1.0,left,left,4634990476.0,3.0,47.0,50.0,58.0,797000000.0,1,50.0,47.0,3.0,-0.3468263225,0.73861892661,-1.0477656507,-1.0477656507,-0.387369064508,-0.680259847359,True,22.2568999812,-0.119822445193
1,135,Monolingual,6,10,1.0,left,left,4596489481.0,3.0,50.0,53.0,60.0,912000000.0,1,53.0,50.0,3.0,-0.359414646687,0.958773599221,-1.0477656507,-1.0477656507,0.524087557864,0.280106995971,True,22.2485586928,-0.135231653054
1,136,Monolingual,6,11,1.0,right,right,5920815949.0,2.0,50.0,48.0,50.0,1059000000.0,1,50.0,48.0,2.0,0.0735884719983,-0.141999763834,-1.72374348986,-1.72374348986,-0.387369064508,-0.360137566249,False,22.5017401056,0.3324808681
1,137,Monolingual,6,12,1.0,right,right,9709456485.0,2.0,50.0,48.0,50.0,704000000.0,1,50.0,48.0,2.0,1.31232620571,-0.141999763834,-1.72374348986,-1.72374348986,-0.387369064508,-0.360137566249,False,22.9963661429,1.24622405491
1,138,Monolingual,6,13,0.0,right,left,8230201449.0,1.0,50.0,49.0,50.0,692000000.0,1,49.0,50.0,1.0,0.828667486054,-0.141999763834,-2.39972132902,-2.39972132902,-0.691187938632,0.280106995971,True,22.8310763287,0.940877327984
1,139,Monolingual,6,14,1.0,left,left,6452628521.0,2.0,50.0,52.0,40.0,951000000.0,1,52.0,50.0,2.0,0.247470447324,-1.24277312689,-1.72374348986,-1.72374348986,0.22026868374,0.280106995971,True,22.5877534074,0.491376806783
1,140,Monolingual,6,15,0.0,left,right,8346708987.0,2.0,50.0,52.0,60.0,971000000.0,1,50.0,52.0,2.0,0.866760908275,0.958773599221,-1.72374348986,-1.72374348986,-0.387369064508,0.920351558192,False,22.8451331648,0.966845104111
1,141,Monolingual,6,16,0.0,left,right,8424033718.0,3.0,50.0,53.0,62.0,987000000.0,1,50.0,53.0,3.0,0.892043080371,1.17892827183,-1.0477656507,-1.0477656507,-0.387369064508,1.2404738393,False,22.8543546144,0.983880270214
1,142,Monolingual,6,17,1.0,left,left,2491906874.0,4.0,46.0,50.0,50.0,783000000.0,1,50.0,46.0,4.0,-1.04753110013,-0.141999763834,-0.371787811538,-0.371787811538,-0.387369064508,-1.00038212847,True,21.6363140672,-1.26625653459
1,143,Monolingual,6,18,0.0,left,right,5655650258.0,4.0,46.0,50.0,50.0,548000000.0,1,46.0,50.0,4.0,-0.0131103699758,-0.141999763834,-0.371787811538,-0.371787811538,-1.602644561,0.280106995971,False,22.4559209281,0.247837201743
1,144,Monolingual,6,19,1.0,left,left,11978914149.0,5.0,45.0,50.0,50.0,501000000.0,1,50.0,45.0,5.0,2.05435037421,-0.141999763834,0.304190027622,0.304190027622,-0.387369064508,-1.32050440958,True,23.2064137869,1.63425377652
1,145,Monolingual,6,20,1.0,right,right,3601599773.0,5.0,50.0,45.0,40.0,677000000.0,1,50.0,45.0,5.0,-0.684704789805,-1.24277312689,0.304190027622,0.304190027622,-0.387369064508,-1.32050440958,False,22.0046439651,-0.585825442636
1,146,Monolingual,6,21,0.0,right,left,8698531901.0,4.0,50.0,46.0,42.0,1156000000.0,1,46.0,50.0,4.0,0.981793283349,-1.02261845428,-0.371787811538,-0.371787811538,-1.602644561,0.280106995971,True,22.8864201014,1.04311617379
1,147,Monolingual,6,22,0.0,right,left,6846700440.0,5.0,55.0,50.0,40.0,1047000000.0,1,50.0,55.0,5.0,0.376316599716,-1.24277312689,0.304190027622,0.304190027622,-0.387369064508,1.88071840152,True,22.6470326856,0.600885875229
1,148,Monolingual,6,23,1.0,right,right,6721593310.0,6.0,50.0,44.0,38.0,1083000000.0,1,50.0,44.0,6.0,0.335411446215,-1.4629277995,0.980167866782,0.980167866782,-0.387369064508,-1.64062669069,False,22.6285910631,0.566817901364
1,149,Monolingual,6,24,0.0,left,right,4395509590.0,6.0,44.0,50.0,62.0,797000000.0,1,44.0,50.0,6.0,-0.425127234707,1.17892827183,0.980167866782,0.980167866782,-2.21028230925,0.280106995971,False,22.203849309,-0.217825151391
1,150,Monolingual,6,25,1.0,left,left,2538593380.0,7.0,50.0,57.0,40.0,797000000.0,1,57.0,50.0,7.0,-1.032266433,-1.24277312689,1.65614570594,1.65614570594,1.73936305436,0.280106995971,True,21.6548759772,-1.23196634866
1,151,Monolingual,7,1,1.0,right,right,4758128353.67,7.0,57.0,50.0,50.0,561000000.0,1,57.0,50.0,7.0,-0.306565037728,-0.141999763834,1.65614570594,1.65614570594,1.73936305436,0.280106995971,False,22.2831202249,-0.071384701884
1,152,Monolingual,7,2,1.0,right,right,10889381620.0,6.0,56.0,50.0,60.0,847000000.0,1,56.0,50.0,6.0,1.6981157188,0.958773599221,0.980167866782,0.980167866782,1.43554418024,0.280106995971,False,23.1110539881,1.45809166642
1,153,Monolingual,7,3,1.0,left,left,10416081570.0,6.0,50.0,56.0,50.0,659000000.0,1,56.0,50.0,6.0,1.54336505673,-0.141999763834,0.980167866782,0.980167866782,1.43554418024,0.280106995971,True,23.0666167536,1.37600092074
1,154,Monolingual,7,4,0.0,left,right,5756821080.0,5.0,50.0,55.0,62.0,1047000000.0,1,50.0,55.0,5.0,0.019968544102,1.17892827183,0.304190027622,0.304190027622,-0.387369064508,1.88071840152,False,22.4736512635,0.280591185483
1,155,Monolingual,7,5,1.0,right,right,5531869570.0,6.0,56.0,50.0,50.0,610000000.0,1,56.0,50.0,6.0,-0.0535818286622,-0.141999763834,0.980167866782,0.980167866782,1.43554418024,0.280106995971,False,22.4337916731,0.206956911553
1,156,Monolingual,7,6,1.0,left,left,5707935840.0,6.0,50.0,56.0,42.0,922000000.0,1,56.0,50.0,6.0,0.00398497668933,-1.02261845428,0.980167866782,0.980167866782,1.43554418024,0.280106995971,True,22.4651232961,0.264837117838
1,157,Monolingual,7,7,1.0,right,right,9249154190.0,5.0,50.0,45.0,58.0,909000000.0,1,50.0,45.0,5.0,1.16182530273,0.73861892661,0.304190027622,0.304190027622,-0.387369064508,-1.32050440958,False,22.9477979454,1.15650200987
1,158,Monolingual,7,8,1.0,left,left,10354181010.0,5.0,50.0,55.0,50.0,637000000.0,1,55.0,50.0,5.0,1.52312598716,-0.141999763834,0.304190027622,0.304190027622,1.13172530611,0.280106995971,True,23.0606562374,1.36498981203
1,159,Monolingual,7,9,1.0,right,right,9908463020.0,4.0,50.0,46.0,50.0,704000000.0,1,50.0,46.0,4.0,1.37739358326,-0.141999763834,-0.371787811538,-0.371787811538,-0.387369064508,-1.00038212847,False,23.0166550794,1.28370464852
1,160,Monolingual,7,10,1.0,right,right,9233157940.0,4.0,50.0,46.0,50.0,1204000000.0,1,50.0,46.0,4.0,1.15659515268,-0.141999763834,-0.371787811538,-0.371787811538,-0.387369064508,-1.00038212847,False,22.9460669656,1.15330429921
1,161,Monolingual,7,11,0.0,left,right,14602655440.0,3.0,50.0,53.0,64.0,2326000000.0,1,50.0,53.0,3.0,2.91221147498,1.39908294444,-1.0477656507,-1.0477656507,-0.387369064508,1.2404738393,False,23.4044692286,2.00012980568
1,162,Monolingual,7,12,0.0,right,left,9385709970.0,4.0,50.0,46.0,38.0,766000000.0,1,46.0,50.0,4.0,1.20647371839,-1.4629277995,-0.371787811538,-0.371787811538,-1.602644561,0.280106995971,True,22.9624541536,1.18357703093
1,163,Monolingual,7,13,0.0,right,left,9861279840.0,5.0,55.0,50.0,44.0,1161000000.0,1,50.0,55.0,5.0,1.3619665231,-0.802463781667,0.304190027622,0.304190027622,-0.387369064508,1.88071840152,True,23.0118817984,1.27488676851
1,164,Monolingual,7,14,0.0,right,left,8495497140.0,6.0,56.0,50.0,42.0,1812000000.0,1,50.0,56.0,6.0,0.915408832959,-1.02261845428,0.980167866782,0.980167866782,-0.387369064508,2.20084068263,True,22.8628021118,0.999485682518
1,165,Monolingual,7,15,1.0,left,left,8640440160.0,7.0,43.0,50.0,60.0,1425000000.0,1,50.0,43.0,7.0,0.962799549077,0.958773599221,1.65614570594,1.65614570594,-0.387369064508,-1.9607489718,True,22.8797193629,1.03073762183
1,166,Monolingual,7,16,1.0,right,right,10519919600.0,7.0,57.0,50.0,38.0,1297000000.0,1,57.0,50.0,7.0,1.57731604383,-1.4629277995,1.65614570594,1.65614570594,1.73936305436,0.280106995971,False,23.0765364016,1.39432589784
1,167,Monolingual,7,17,1.0,right,right,11182920080.0,6.0,50.0,44.0,50.0,909000000.0,1,50.0,44.0,6.0,1.79409134997,-0.141999763834,0.980167866782,0.980167866782,-0.387369064508,-1.64062669069,False,23.1376534584,1.50722997082
1,168,Monolingual,7,18,1.0,right,right,5241367280.0,6.0,56.0,50.0,50.0,1223000000.0,1,56.0,50.0,6.0,-0.148564750619,-0.141999763834,0.980167866782,0.980167866782,1.43554418024,0.280106995971,False,22.3798482325,0.107304957217
1,169,Monolingual,7,19,1.0,left,left,6218246420.0,5.0,45.0,50.0,32.0,1379000000.0,1,50.0,45.0,5.0,0.170836639008,-2.12339181733,0.304190027622,0.304190027622,-0.387369064508,-1.32050440958,True,22.5507537779,0.423025857195
1,170,Monolingual,7,20,1.0,left,left,13889196030.0,5.0,45.0,50.0,60.0,1578000000.0,1,50.0,45.0,5.0,2.67893806616,0.958773599221,0.304190027622,0.304190027622,-0.387369064508,-1.32050440958,True,23.3543771108,1.90759255966
1,171,Monolingual,7,21,0.0,left,right,11354318010.0,4.0,50.0,54.0,58.0,1968000000.0,1,50.0,54.0,4.0,1.85013179016,0.73861892661,-0.371787811538,-0.371787811538,-0.387369064508,1.56059612041,False,23.1528639499,1.53532894247
1,172,Monolingual,7,22,1.0,right,right,11904339600.0,5.0,50.0,45.0,60.0,1205000000.0,1,50.0,45.0,5.0,2.02996740439,0.958773599221,0.304190027622,0.304190027622,-0.387369064508,-1.32050440958,False,23.2001688429,1.62271723251
1,173,Monolingual,7,23,1.0,left,left,6376536130.0,5.0,50.0,55.0,70.0,1593000000.0,1,55.0,50.0,5.0,0.222591202359,2.05954696228,0.304190027622,0.304190027622,1.13172530611,0.280106995971,True,22.5758908605,0.46946263216
1,174,Monolingual,7,24,1.0,left,left,9342738640.0,4.0,46.0,50.0,26.0,1811000000.0,1,50.0,46.0,4.0,1.19242376896,-2.78385583517,-0.371787811538,-0.371787811538,-0.387369064508,-1.00038212847,True,22.9578652625,1.17509978217
1,175,Monolingual,7,25,0.0,right,left,9619499240.0,4.0,50.0,46.0,58.0,862000000.0,1,46.0,50.0,4.0,1.28291369409,0.73861892661,-0.371787811538,-0.371787811538,-1.602644561,0.280106995971,True,22.9870580462,1.22902882194
1,176,Monolingual,8,1,0.0,right,left,13115766962.1,5.0,50.0,45.0,30.0,1356000000.0,1,45.0,50.0,5.0,2.42605691746,-2.34354648994,0.304190027622,0.304190027622,-1.90646343513,0.280106995971,True,23.2970809283,1.80174694612
1,177,Monolingual,8,2,1.0,left,left,7235632170.0,6.0,50.0,56.0,38.0,829000000.0,1,56.0,50.0,6.0,0.503482110725,-1.4629277995,0.980167866782,0.980167866782,1.43554418024,0.280106995971,True,22.7022835699,0.702953124541
1,178,Monolingual,8,3,1.0,right,right,7442975230.0,6.0,56.0,50.0,38.0,1424000000.0,1,56.0,50.0,6.0,0.571275206904,-1.4629277995,0.980167866782,0.980167866782,1.43554418024,0.280106995971,False,22.7305365024,0.755145938171
1,179,Monolingual,8,4,1.0,left,left,9195827030.0,5.0,45.0,50.0,38.0,1000000000.0,1,50.0,45.0,5.0,1.14438940067,-1.4629277995,0.304190027622,0.304190027622,-0.387369064508,-1.32050440958,True,22.9420156344,1.14582010708
1,180,Monolingual,8,5,0.0,right,left,5458042530.0,5.0,50.0,45.0,40.0,905000000.0,1,45.0,50.0,5.0,-0.0777203921778,-1.24277312689,0.304190027622,0.304190027622,-1.90646343513,0.280106995971,True,22.4203560514,0.182136730581
1,181,Monolingual,8,6,1.0,right,right,10003234960.0,6.0,50.0,44.0,30.0,896000000.0,1,50.0,44.0,6.0,1.40838031242,-2.34354648994,0.980167866782,0.980167866782,-0.387369064508,-1.64062669069,False,23.0261743736,1.3012900354
1,182,Monolingual,8,7,0.0,left,right,12360037920.0,6.0,44.0,50.0,36.0,891000000.0,1,44.0,50.0,6.0,2.17896298706,-1.68308247211,0.980167866782,0.980167866782,-2.21028230925,0.280106995971,False,23.2377343569,1.69211356419
1,183,Monolingual,8,8,1.0,right,right,10298398170.0,7.0,57.0,50.0,64.0,922000000.0,1,57.0,50.0,7.0,1.50488717348,1.39908294444,1.65614570594,1.65614570594,1.73936305436,0.280106995971,False,23.0552542026,1.35501040918
1,184,Monolingual,8,9,1.0,left,left,9342433560.0,7.0,43.0,50.0,66.0,1437000000.0,1,50.0,43.0,7.0,1.1923240197,1.61923761705,1.65614570594,1.65614570594,-0.387369064508,-1.9607489718,True,22.9578326077,1.17503945766
1,185,Monolingual,8,10,1.0,right,right,11179409910.0,6.0,56.0,50.0,60.0,753000000.0,1,56.0,50.0,6.0,1.79294366124,0.958773599221,0.980167866782,0.980167866782,1.43554418024,0.280106995971,False,23.1373395224,1.50665002386
1,186,Monolingual,8,11,1.0,right,right,13727599810.0,6.0,50.0,44.0,62.0,890000000.0,1,50.0,44.0,6.0,2.62610240296,1.17892827183,0.980167866782,0.980167866782,-0.387369064508,-1.64062669069,False,23.3426742279,1.8859733388
1,187,Monolingual,8,12,1.0,right,right,11008821280.0,5.0,55.0,50.0,64.0,600000000.0,1,55.0,50.0,5.0,1.73716783059,1.39908294444,0.304190027622,0.304190027622,1.13172530611,0.280106995971,False,23.1219627229,1.47824382458
1,188,Monolingual,8,13,0.0,left,right,17312553980.0,5.0,50.0,55.0,60.0,782000000.0,1,50.0,55.0,5.0,3.79824263685,0.958773599221,0.304190027622,0.304190027622,-0.387369064508,1.88071840152,False,23.5746977389,2.3145999907
1,189,Monolingual,8,14,1.0,left,left,9732676850.0,6.0,50.0,56.0,32.0,1313000000.0,1,56.0,50.0,6.0,1.31991835969,-2.12339181733,0.980167866782,0.980167866782,1.43554418024,0.280106995971,True,22.9987548084,1.25063673562
1,190,Monolingual,8,15,1.0,left,left,6502287320.0,6.0,44.0,50.0,40.0,1172000000.0,1,50.0,44.0,6.0,0.263706938368,-1.24277312689,0.980167866782,0.980167866782,-0.387369064508,-1.64062669069,True,22.5954198473,0.505539339178
1,191,Monolingual,8,16,0.0,left,right,9279803540.0,5.0,45.0,50.0,58.0,1239000000.0,1,45.0,50.0,5.0,1.17184644514,0.73861892661,0.304190027622,0.304190027622,-1.90646343513,0.280106995971,False,22.9511062133,1.16261351031
1,192,Monolingual,8,17,0.0,left,right,9443075600.0,6.0,50.0,56.0,56.0,875000000.0,1,50.0,56.0,6.0,1.22523004268,0.518464253999,0.980167866782,0.980167866782,-0.387369064508,2.20084068263,False,22.9685475691,1.19483365014
1,193,Monolingual,8,18,1.0,left,left,6772912770.0,7.0,43.0,50.0,62.0,829000000.0,1,50.0,43.0,7.0,0.352190908655,1.17892827183,1.65614570594,1.65614570594,-0.387369064508,-1.9607489718,True,22.636197078,0.580868808115
1,194,Monolingual,8,19,1.0,right,right,4209882200.0,7.0,50.0,43.0,68.0,691000000.0,1,50.0,43.0,7.0,-0.485820153504,1.83939228967,1.65614570594,1.65614570594,-0.387369064508,-1.9607489718,False,22.1607005033,-0.297535729326
1,195,Monolingual,8,20,0.0,left,right,3625872480.0,6.0,50.0,56.0,68.0,1220000000.0,1,50.0,56.0,6.0,-0.676768561025,1.83939228967,0.980167866782,0.980167866782,-0.387369064508,2.20084068263,False,22.0113607804,-0.573417191165
1,196,Monolingual,8,21,1.0,right,right,11260045910.0,7.0,50.0,43.0,58.0,628000000.0,1,50.0,43.0,7.0,1.81930848919,0.73861892661,1.65614570594,1.65614570594,-0.387369064508,-1.9607489718,False,23.1445265369,1.51992689372
1,197,Monolingual,8,22,1.0,right,right,6392054840.0,7.0,57.0,50.0,58.0,470000000.0,1,57.0,50.0,7.0,0.227665215444,0.73861892661,1.65614570594,1.65614570594,1.73936305436,0.280106995971,False,22.5783216248,0.473953083863
1,198,Monolingual,8,23,1.0,left,left,2045685220.0,6.0,50.0,56.0,38.0,891000000.0,1,56.0,50.0,6.0,-1.19342818251,-1.4629277995,0.980167866782,0.980167866782,1.43554418024,0.280106995971,True,21.4389986412,-1.63076550201
1,199,Monolingual,8,24,1.0,left,left,10820383530.0,6.0,50.0,56.0,38.0,596000000.0,1,56.0,50.0,6.0,1.67555603366,-1.4629277995,0.980167866782,0.980167866782,1.43554418024,0.280106995971,True,23.1046975561,1.44634916614
1,200,Monolingual,8,25,1.0,right,right,1853192860.0,5.0,55.0,50.0,58.0,470000000.0,1,55.0,50.0,5.0,-1.25636567883,0.73861892661,0.304190027622,0.304190027622,1.13172530611,0.280106995971,False,21.3401758587,-1.81332492551
2,1,Monolingual,1,1,1.0,right,right,5318904181.0,1.0,50.0,49.0,36.0,1676000000.0,1,50.0,49.0,1.0,1.07217165542,-0.737316927583,-1.32943405706,-1.32943405706,-0.457857245389,-0.12387441407,False,22.3945331381,1.12125062192
2,2,Monolingual,1,2,1.0,right,right,3639474305.0,1.0,50.0,49.0,50.0,839000000.0,1,50.0,49.0,1.0,0.101313357309,0.0710179969403,-1.32943405706,-1.32943405706,-0.457857245389,-0.12387441407,False,22.0151050865,0.343683656306
2,3,Monolingual,1,3,1.0,left,left,3981320832.0,1.0,49.0,50.0,32.0,1406000000.0,1,50.0,49.0,1.0,0.298930740541,-0.968269763161,-1.32943405706,-1.32943405706,-0.457857245389,-0.12387441407,True,22.1048794685,0.527659494556
2,4,Monolingual,1,4,1.0,right,right,2015179268.0,1.0,50.0,49.0,56.0,905000000.0,1,50.0,49.0,1.0,-0.83767215068,0.417447250307,-1.32943405706,-1.32943405706,-0.457857245389,-0.12387441407,False,21.4239739951,-0.867729171543
2,5,Monolingual,1,5,0.0,right,left,2011506524.0,1.0,50.0,49.0,54.0,1065000000.0,1,49.0,50.0,1.0,-0.839795320001,0.301970832518,-1.32943405706,-1.32943405706,-0.978149569695,0.282271205831,True,21.4221497927,-0.871467533923
2,6,Monolingual,1,6,1.0,left,left,2710209770.0,2.0,48.0,50.0,56.0,985000000.0,1,50.0,48.0,2.0,-0.435883341306,0.417447250307,-0.65287728502,-0.65287728502,-0.457857245389,-0.530020033971,True,21.7202918747,-0.260480989629
2,7,Monolingual,1,7,1.0,left,left,4740118435.0,2.0,48.0,50.0,18.0,2329000000.0,1,50.0,48.0,2.0,0.737582547315,-1.77660468768,-0.65287728502,-0.65287728502,-0.457857245389,-0.530020033971,True,22.2793279586,0.885159111499
2,8,Monolingual,1,8,1.0,right,right,2409285801.0,1.0,50.0,49.0,58.0,1270000000.0,1,50.0,49.0,1.0,-0.609843883856,0.532923668097,-1.32943405706,-1.32943405706,-0.457857245389,-0.12387441407,False,21.6025961924,-0.501676320874
2,9,Monolingual,1,9,0.0,right,left,1569068566.0,1.0,50.0,49.0,80.0,1406000000.0,1,49.0,50.0,1.0,-1.09556340479,1.80316426378,-1.32943405706,-1.32943405706,-0.978149569695,0.282271205831,True,21.1737480102,-1.38052061912
2,10,Monolingual,1,10,1.0,left,left,2603461198.0,2.0,48.0,50.0,58.0,706000000.0,1,50.0,48.0,2.0,-0.497593412336,0.532923668097,-0.65287728502,-0.65287728502,-0.457857245389,-0.530020033971,True,21.6801076267,-0.342831105041
2,11,Monolingual,1,11,1.0,left,left,3723956339.0,2.0,50.0,52.0,34.0,1048000000.0,1,52.0,50.0,2.0,0.15015140939,-0.852793345372,-0.65287728502,-0.65287728502,0.582727403222,0.282271205831,True,22.0380524721,0.390710039626
2,12,Monolingual,1,12,0.0,left,right,1838201653.0,1.0,50.0,51.0,60.0,893000000.0,1,50.0,51.0,1.0,-0.93998079039,0.648400085886,-1.32943405706,-1.32943405706,-0.457857245389,0.688416825733,False,21.3320535681,-1.0561029283
2,13,Monolingual,1,13,1.0,left,left,2184568184.0,2.0,50.0,52.0,56.0,1691000000.0,1,52.0,50.0,2.0,-0.739750446978,0.417447250307,-0.65287728502,-0.65287728502,0.582727403222,0.282271205831,True,21.5046840185,-0.702329044437
2,14,Monolingual,1,14,1.0,right,right,1615970006.0,2.0,52.0,50.0,56.0,753000000.0,1,52.0,50.0,2.0,-1.06845024403,0.417447250307,-0.65287728502,-0.65287728502,0.582727403222,0.282271205831,False,21.2032012362,-1.32016173025
2,15,Monolingual,1,15,1.0,right,right,1536025187.0,1.0,51.0,50.0,60.0,891000000.0,1,51.0,50.0,1.0,-1.11466538646,0.648400085886,-1.32943405706,-1.32943405706,0.0624350789167,0.282271205831,False,21.1524638693,-1.42413849281
2,16,Monolingual,1,16,1.0,right,right,2622996677.0,1.0,50.0,49.0,38.0,1237000000.0,1,50.0,49.0,1.0,-0.486300185887,-0.621840509794,-1.32943405706,-1.32943405706,-0.457857245389,-0.12387441407,False,21.687583271,-0.327511167519
2,17,Monolingual,1,17,0.0,right,left,2257408192.0,1.0,51.0,50.0,40.0,1019000000.0,1,50.0,51.0,1.0,-0.6976425107,-0.506364092005,-1.32943405706,-1.32943405706,-0.457857245389,0.688416825733,True,21.5374831744,-0.635113296832
2,18,Monolingual,1,18,1.0,right,right,1706913432.0,2.0,52.0,50.0,60.0,798000000.0,1,52.0,50.0,2.0,-1.01587693861,0.648400085886,-0.65287728502,-0.65287728502,0.582727403222,0.282271205831,False,21.2579525659,-1.2079591002
2,19,Monolingual,1,19,0.0,right,left,1744779748.0,2.0,52.0,50.0,40.0,1237000000.0,1,50.0,52.0,2.0,-0.99398687483,-0.506364092005,-0.65287728502,-0.65287728502,-0.457857245389,1.09456244563,True,21.2798941657,-1.16299388718
2,20,Monolingual,1,20,1.0,left,left,1949482168.0,3.0,50.0,53.0,58.0,1359000000.0,1,53.0,50.0,3.0,-0.875650857388,0.532923668097,0.0236794870215,0.0236794870215,1.10301972753,0.282271205831,True,21.3908296194,-0.935652382735
2,21,Monolingual,1,21,1.0,right,right,2509694148.0,3.0,53.0,50.0,22.0,2124000000.0,1,53.0,50.0,3.0,-0.551799020967,-1.54565185211,0.0236794870215,0.0236794870215,1.10301972753,0.282271205831,False,21.6434267293,-0.418001757189
2,22,Monolingual,1,22,1.0,right,right,2957490369.0,2.0,52.0,50.0,20.0,1454000000.0,1,52.0,50.0,2.0,-0.292933388509,-1.6611282699,-0.65287728502,-0.65287728502,0.582727403222,0.282271205831,False,21.8076068973,-0.0815451495217
2,23,Monolingual,1,23,1.0,left,left,1436267702.0,2.0,50.0,52.0,72.0,1018000000.0,1,52.0,50.0,2.0,-1.17233399382,1.34125859262,-0.65287728502,-0.65287728502,0.582727403222,0.282271205831,True,21.0853137122,-1.5617502052
2,24,Monolingual,1,24,1.0,left,left,3111876884.0,1.0,49.0,50.0,34.0,1330000000.0,1,50.0,49.0,1.0,-0.203684393153,-0.852793345372,-1.32943405706,-1.32943405706,-0.457857245389,-0.12387441407,True,21.8584918808,0.022734125561
2,25,Monolingual,1,25,1.0,left,left,2434103146.0,1.0,49.0,50.0,50.0,1312000000.0,1,50.0,49.0,1.0,-0.595497273929,0.0710179969403,-1.32943405706,-1.32943405706,-0.457857245389,-0.12387441407,True,21.6128442078,-0.480674926316
2,26,Monolingual,2,1,0.0,right,left,6236433149.94,1.0,51.0,50.0,28.0,952000000.0,1,50.0,51.0,1.0,1.60258416384,-1.19922259874,-1.32943405706,-1.32943405706,-0.457857245389,0.688416825733,True,22.5536742453,1.44738061505
2,27,Monolingual,2,2,1.0,right,right,4106513362.0,2.0,50.0,48.0,30.0,1187000000.0,1,50.0,48.0,2.0,0.371303042802,-1.08374618095,-0.65287728502,-0.65287728502,-0.457857245389,-0.530020033971,False,22.135840175,0.591107683192
2,28,Monolingual,2,3,0.0,right,left,2027283703.0,2.0,52.0,50.0,40.0,1249000000.0,1,50.0,52.0,2.0,-0.830674721772,-0.506364092005,-0.65287728502,-0.65287728502,-0.457857245389,1.09456244563,True,21.4299626566,-0.85545652768
2,29,Monolingual,2,4,0.0,left,right,4694357760.0,3.0,50.0,53.0,20.0,1540000000.0,1,50.0,53.0,3.0,0.711128849137,-1.6611282699,0.0236794870215,0.0236794870215,-0.457857245389,1.50070806554,False,22.2696271479,0.865279110754
2,30,Monolingual,2,5,1.0,left,left,2121458498.0,4.0,46.0,50.0,70.0,1718000000.0,1,50.0,46.0,4.0,-0.776233400639,1.22578217483,0.700236259063,0.700236259063,-0.457857245389,-1.34231127377,True,21.4753696598,-0.762403350532
2,31,Monolingual,2,6,1.0,right,right,3216629524.0,4.0,50.0,46.0,60.0,907000000.0,1,50.0,46.0,4.0,-0.143128146509,0.648400085886,0.700236259063,0.700236259063,-0.457857245389,-1.34231127377,False,21.8915999166,0.090582864877
2,32,Monolingual,2,7,1.0,right,right,3959739875.0,3.0,53.0,50.0,58.0,813000000.0,1,53.0,50.0,3.0,0.286455047758,0.532923668097,0.0236794870215,0.0236794870215,1.10301972753,0.282271205831,False,22.0994441719,0.516520868758
2,33,Monolingual,2,8,1.0,left,left,4923689210.0,3.0,50.0,53.0,34.0,923000000.0,1,53.0,50.0,3.0,0.84370261386,-0.852793345372,0.0236794870215,0.0236794870215,1.10301972753,0.282271205831,True,22.3173239259,0.963024753868
2,34,Monolingual,2,9,0.0,left,right,2804853186.0,2.0,50.0,52.0,28.0,1172000000.0,1,50.0,52.0,2.0,-0.381171115986,-1.19922259874,-0.65287728502,-0.65287728502,-0.457857245389,1.09456244563,False,21.7546170344,-0.190137982154
2,35,Monolingual,2,10,1.0,right,right,3866723378.0,3.0,50.0,47.0,60.0,800000000.0,1,50.0,47.0,3.0,0.232683324827,0.648400085886,0.0236794870215,0.0236794870215,-0.457857245389,-0.936165653873,False,22.075673313,0.467806930609
2,36,Monolingual,2,11,1.0,right,right,4227218157.0,3.0,50.0,47.0,16.0,2245000000.0,1,50.0,47.0,3.0,0.441081039206,-1.89208110547,0.0236794870215,0.0236794870215,-0.457857245389,-0.936165653873,False,22.1648099676,0.650475865373
2,37,Monolingual,2,12,0.0,left,right,4209369794.0,2.0,50.0,52.0,40.0,1515000000.0,1,50.0,52.0,2.0,0.430763114311,-0.506364092005,-0.65287728502,-0.65287728502,-0.457857245389,1.09456244563,False,22.1605787808,0.641804837921
2,38,Monolingual,2,13,0.0,right,left,4802909447.0,3.0,53.0,50.0,62.0,875000000.0,1,50.0,53.0,3.0,0.773881279354,0.763876503675,0.0236794870215,0.0236794870215,-0.457857245389,1.50070806554,True,22.292487706,0.91212755732
2,39,Monolingual,2,14,1.0,left,left,2525657202.0,4.0,46.0,50.0,62.0,847000000.0,1,50.0,46.0,4.0,-0.542570970626,0.763876503675,0.700236259063,0.700236259063,-0.457857245389,-1.34231127377,True,21.6497671438,-0.405008261109
2,40,Monolingual,2,15,1.0,left,left,4207320166.0,4.0,46.0,50.0,36.0,2199000000.0,1,50.0,46.0,4.0,0.429578248911,-0.737316927583,0.700236259063,0.700236259063,-0.457857245389,-1.34231127377,True,22.1600917418,0.640806742447
2,41,Monolingual,2,16,1.0,left,left,3276559269.0,3.0,50.0,53.0,34.0,1206000000.0,1,53.0,50.0,3.0,-0.108483478655,-0.852793345372,0.0236794870215,0.0236794870215,1.10301972753,0.282271205831,True,21.9100597054,0.128412756175
2,42,Monolingual,2,17,1.0,left,left,1617658758.0,3.0,47.0,50.0,68.0,595000000.0,1,50.0,47.0,3.0,-1.06747399672,1.11030575704,0.0236794870215,0.0236794870215,-0.457857245389,-0.936165653873,True,21.2042457298,-1.31802123574
2,43,Monolingual,2,18,0.0,left,right,3917402726.0,2.0,48.0,50.0,20.0,1281000000.0,1,48.0,50.0,2.0,0.26198044896,-1.6611282699,-0.65287728502,-0.65287728502,-1.498441894,0.282271205831,False,22.0886947013,0.494491835176
2,44,Monolingual,2,19,1.0,left,left,1897277037.0,3.0,47.0,50.0,62.0,1144000000.0,1,50.0,47.0,3.0,-0.905830018399,0.763876503675,0.0236794870215,0.0236794870215,-0.457857245389,-0.936165653873,True,21.3636855568,-0.991279072196
2,45,Monolingual,2,20,0.0,right,left,2853771196.0,3.0,53.0,50.0,60.0,989000000.0,1,50.0,53.0,3.0,-0.352892200257,0.648400085886,0.0236794870215,0.0236794870215,-0.457857245389,1.50070806554,True,21.7719071832,-0.154705049753
2,46,Monolingual,2,21,0.0,right,left,6561620599.0,4.0,54.0,50.0,32.0,1188000000.0,1,50.0,54.0,4.0,1.79057113363,-0.968269763161,0.700236259063,0.700236259063,-0.457857245389,1.90685368544,True,22.6045034519,1.55154558594
2,47,Monolingual,2,22,1.0,right,right,1428351396.0,5.0,50.0,45.0,56.0,737000000.0,1,50.0,45.0,5.0,-1.17691031551,0.417447250307,1.37679303111,1.37679303111,-0.457857245389,-1.74845689368,False,21.0797867462,-1.57307669029
2,48,Monolingual,2,23,1.0,right,right,2309139233.0,5.0,50.0,45.0,34.0,1144000000.0,1,50.0,45.0,5.0,-0.66773741544,-0.852793345372,1.37679303111,1.37679303111,-0.457857245389,-1.74845689368,False,21.5601406656,-0.588680997995
2,49,Monolingual,2,24,0.0,right,left,2537546770.0,4.0,54.0,50.0,36.0,2357000000.0,1,50.0,54.0,4.0,-0.535697753757,-0.737316927583,0.700236259063,0.700236259063,-0.457857245389,1.90685368544,True,21.6544636127,-0.395383724882
2,50,Monolingual,2,25,1.0,right,right,4007808920.0,5.0,55.0,50.0,62.0,954000000.0,1,55.0,50.0,5.0,0.314243186987,0.763876503675,1.37679303111,1.37679303111,2.14360437614,0.282271205831,False,22.1115105249,0.541248606895
2,51,Monolingual,3,1,1.0,right,right,4620544384.34,5.0,55.0,50.0,36.0,801000000.0,1,55.0,50.0,5.0,0.668458220673,-0.737316927583,1.37679303111,1.37679303111,2.14360437614,0.282271205831,False,22.2537783672,0.832799993109
2,52,Monolingual,3,2,1.0,right,right,2049589185.0,4.0,54.0,50.0,60.0,1406000000.0,1,54.0,50.0,4.0,-0.817780189763,0.648400085886,0.700236259063,0.700236259063,1.62331205183,0.282271205831,False,21.4409052125,-0.833031802129
2,53,Monolingual,3,3,1.0,right,right,3527702103.0,4.0,54.0,50.0,30.0,1110000000.0,1,54.0,50.0,4.0,0.0366991859403,-1.08374618095,0.700236259063,0.700236259063,1.62331205183,0.282271205831,False,21.9839125336,0.279760341793
2,54,Monolingual,3,4,1.0,left,left,2041741687.0,3.0,47.0,50.0,58.0,860000000.0,1,50.0,47.0,3.0,-0.822316734373,0.532923668097,0.0236794870215,0.0236794870215,-0.457857245389,-0.936165653873,True,21.4370690487,-0.840893303688
2,55,Monolingual,3,5,1.0,left,left,4287621084.0,3.0,50.0,53.0,28.0,907000000.0,1,53.0,50.0,3.0,0.475999247906,-1.19922259874,0.0236794870215,0.0236794870215,1.10301972753,0.282271205831,True,22.1789978902,0.679551364436
2,56,Monolingual,3,6,1.0,left,left,1631490643.0,2.0,50.0,52.0,60.0,582000000.0,1,52.0,50.0,2.0,-1.05947794966,0.648400085886,-0.65287728502,-0.65287728502,0.582727403222,0.282271205831,True,21.2127599388,-1.30057295368
2,57,Monolingual,3,7,1.0,left,left,2335213969.0,2.0,50.0,52.0,58.0,845000000.0,1,52.0,50.0,2.0,-0.652663922835,0.532923668097,-0.65287728502,-0.65287728502,0.582727403222,0.282271205831,True,21.5713693594,-0.565669886095
2,58,Monolingual,3,8,1.0,right,right,2228135213.0,1.0,50.0,49.0,28.0,1187000000.0,1,50.0,49.0,1.0,-0.714564869281,-1.19922259874,-1.32943405706,-1.32943405706,-0.457857245389,-0.12387441407,False,21.5244308452,-0.661861609111
2,59,Monolingual,3,9,1.0,right,right,3617782998.0,1.0,50.0,49.0,26.0,1107000000.0,1,50.0,49.0,1.0,0.088773872512,-1.31469901653,-1.32943405706,-1.32943405706,-0.457857245389,-0.12387441407,False,22.0091272437,0.331433183381
2,60,Monolingual,3,10,1.0,left,left,2453857434.0,1.0,49.0,50.0,32.0,1400000000.0,1,50.0,49.0,1.0,-0.584077556618,-0.968269763161,-1.32943405706,-1.32943405706,-0.457857245389,-0.12387441407,True,21.6209270862,-0.464110575785
2,61,Monolingual,3,11,0.0,right,left,1513142640.0,1.0,50.0,49.0,68.0,491000000.0,1,49.0,50.0,1.0,-1.12789351283,1.11030575704,-1.32943405706,-1.32943405706,-0.978149569695,0.282271205831,True,21.1374545436,-1.45489730419
2,62,Monolingual,3,12,1.0,left,left,2836130870.0,2.0,50.0,52.0,62.0,737000000.0,1,52.0,50.0,2.0,-0.363089861454,0.763876503675,-0.65287728502,-0.65287728502,0.582727403222,0.282271205831,True,21.7657065905,-0.167412006991
2,63,Monolingual,3,13,1.0,left,left,5065839723.0,2.0,50.0,52.0,32.0,1234000000.0,1,52.0,50.0,2.0,0.925878123001,-0.968269763161,-0.65287728502,-0.65287728502,0.582727403222,0.282271205831,True,22.3457857502,1.02135195003
2,64,Monolingual,3,14,0.0,right,left,2307737059.0,1.0,51.0,50.0,60.0,769000000.0,1,50.0,51.0,1.0,-0.668547995437,0.648400085886,-1.32943405706,-1.32943405706,-0.457857245389,0.688416825733,True,21.5595332532,-0.589925776405
2,65,Monolingual,3,15,0.0,right,left,2034424422.0,2.0,52.0,50.0,66.0,982000000.0,1,50.0,52.0,2.0,-0.826546757637,0.994829339253,-0.65287728502,-0.65287728502,-0.457857245389,1.09456244563,True,21.4334787765,-0.84825089631
2,66,Monolingual,3,16,1.0,left,left,5351414724.0,3.0,50.0,53.0,60.0,1061000000.0,1,53.0,50.0,3.0,1.09096561097,0.648400085886,0.0236794870215,0.0236794870215,1.10301972753,0.282271205831,True,22.4006267973,1.13373843902
2,67,Monolingual,3,17,1.0,right,right,3248956850.0,3.0,53.0,50.0,36.0,784000000.0,1,53.0,50.0,3.0,-0.124440106507,-0.737316927583,0.0236794870215,0.0236794870215,1.10301972753,0.282271205831,False,21.9015998125,0.111075784921
2,68,Monolingual,3,18,1.0,right,right,4156813509.0,2.0,52.0,50.0,38.0,940000000.0,1,52.0,50.0,2.0,0.400380955378,-0.621840509794,-0.65287728502,-0.65287728502,0.582727403222,0.282271205831,False,22.1480146343,0.616056964946
2,69,Monolingual,3,19,1.0,right,right,3978166468.0,2.0,52.0,50.0,60.0,547000000.0,1,52.0,50.0,2.0,0.29710724049,0.648400085886,-0.65287728502,-0.65287728502,0.582727403222,0.282271205831,False,22.1040868637,0.526035198844
2,70,Monolingual,3,20,1.0,left,left,4440861245.0,1.0,50.0,51.0,36.0,1124000000.0,1,51.0,50.0,1.0,0.564585549744,-0.737316927583,-1.32943405706,-1.32943405706,0.0624350789167,0.282271205831,True,22.2141141687,0.751515622167
2,71,Monolingual,3,21,0.0,right,left,2136721665.0,1.0,50.0,49.0,58.0,592000000.0,1,49.0,50.0,1.0,-0.767409946592,0.532923668097,-1.32943405706,-1.32943405706,-0.978149569695,0.282271205831,True,21.4825385591,-0.747712029629
2,72,Monolingual,3,22,1.0,right,right,4025662457.0,2.0,50.0,48.0,62.0,1552000000.0,1,50.0,48.0,2.0,0.324564102909,0.763876503675,-0.65287728502,-0.65287728502,-0.457857245389,-0.530020033971,False,22.1159553199,0.550357384398
2,73,Monolingual,3,23,0.0,left,right,3802424259.0,2.0,50.0,52.0,24.0,1611000000.0,1,50.0,52.0,2.0,0.195512774193,-1.43017543432,-0.65287728502,-0.65287728502,-0.457857245389,1.09456244563,False,22.0589046632,0.43344271288
2,74,Monolingual,3,24,0.0,left,right,5498313902.0,3.0,47.0,50.0,34.0,1281000000.0,1,47.0,50.0,3.0,1.17588626648,-0.852793345372,0.0236794870215,0.0236794870215,-2.01873421831,0.282271205831,False,22.4277073189,1.18923491308
2,75,Monolingual,3,25,1.0,right,right,2353935907.0,4.0,50.0,46.0,62.0,532000000.0,1,50.0,46.0,4.0,-0.641840994695,0.763876503675,0.700236259063,0.700236259063,-0.457857245389,-1.34231127377,False,21.5793546181,-0.549305588909
2,76,Monolingual,4,1,1.0,left,left,5379982923.4,4.0,46.0,50.0,58.0,704000000.0,1,50.0,46.0,4.0,1.10748054491,0.532923668097,0.700236259063,0.700236259063,-0.457857245389,-1.34231127377,True,22.405951037,1.14464947451
2,77,Monolingual,4,2,0.0,right,left,6752708145.0,3.0,50.0,47.0,36.0,797000000.0,1,47.0,50.0,3.0,1.90103655547,-0.737316927583,0.0236794870215,0.0236794870215,-2.01873421831,0.282271205831,True,22.633209468,1.61037320754
2,78,Monolingual,4,3,1.0,right,right,1277667131.0,4.0,54.0,50.0,72.0,1096000000.0,1,54.0,50.0,4.0,-1.26401908448,1.34125859262,0.700236259063,0.700236259063,1.62331205183,0.282271205831,False,20.9683016981,-1.80154448599
2,79,Monolingual,4,4,1.0,left,left,1092165870.0,4.0,50.0,54.0,64.0,989000000.0,1,54.0,50.0,4.0,-1.37125514186,0.879352921464,0.700236259063,0.700236259063,1.62331205183,0.282271205831,True,20.8114285983,-2.12302662115
2,80,Monolingual,4,5,0.0,right,left,5158363711.0,3.0,53.0,50.0,58.0,613000000.0,1,50.0,53.0,3.0,0.979365132377,0.532923668097,0.0236794870215,0.0236794870215,-0.457857245389,1.50070806554,True,22.3638852559,1.05844350828
2,81,Monolingual,4,6,1.0,left,left,5029016078.0,4.0,50.0,54.0,26.0,3779000000.0,1,54.0,50.0,4.0,0.904590814834,-1.31469901653,0.700236259063,0.700236259063,1.62331205183,0.282271205831,True,22.3384901912,1.00640106358
2,82,Monolingual,4,7,1.0,right,right,1977352927.0,4.0,50.0,46.0,64.0,812000000.0,1,50.0,46.0,4.0,-0.859539105396,0.879352921464,0.700236259063,0.700236259063,-0.457857245389,-1.34231127377,False,21.4050248816,-0.906561842505
2,83,Monolingual,4,8,1.0,right,right,2218626916.0,3.0,50.0,47.0,62.0,610000000.0,1,50.0,47.0,3.0,-0.720061501903,0.763876503675,0.0236794870215,0.0236794870215,-0.457857245389,-0.936165653873,False,21.5201543352,-0.670625518203
2,84,Monolingual,4,9,1.0,right,right,4492120663.0,3.0,50.0,47.0,40.0,1234000000.0,1,50.0,47.0,3.0,0.594218005396,-0.506364092005,0.0236794870215,0.0236794870215,-0.457857245389,-0.936165653873,False,22.2255907352,0.775034703005
2,85,Monolingual,4,10,1.0,left,left,2727997705.0,2.0,48.0,50.0,30.0,1354000000.0,1,50.0,48.0,2.0,-0.425600349115,-1.08374618095,-0.65287728502,-0.65287728502,-0.457857245389,-0.530020033971,True,21.7268337357,-0.247074666844
2,86,Monolingual,4,11,1.0,right,right,3445954069.0,2.0,50.0,48.0,60.0,735000000.0,1,50.0,48.0,2.0,-0.0105583734834,0.648400085886,-0.65287728502,-0.65287728502,-0.457857245389,-0.530020033971,False,21.9604666462,0.231712372056
2,87,Monolingual,4,12,0.0,right,left,2622349070.0,1.0,51.0,50.0,38.0,771000000.0,1,50.0,51.0,1.0,-0.486674559738,-0.621840509794,-1.32943405706,-1.32943405706,-0.457857245389,0.688416825733,True,21.6873363446,-0.328017196952
2,88,Monolingual,4,13,1.0,right,right,2162578475.0,2.0,52.0,50.0,36.0,842000000.0,1,52.0,50.0,2.0,-0.752462434397,-0.737316927583,-0.65287728502,-0.65287728502,0.582727403222,0.282271205831,False,21.4945670851,-0.723061810904
2,89,Monolingual,4,14,0.0,left,right,1462599977.0,2.0,50.0,52.0,64.0,578000000.0,1,50.0,52.0,2.0,-1.157111621,0.879352921464,-0.65287728502,-0.65287728502,-0.457857245389,1.09456244563,False,21.1034814951,-1.5245187255
2,90,Monolingual,4,15,1.0,left,left,3524980332.0,3.0,50.0,53.0,60.0,735000000.0,1,53.0,50.0,3.0,0.0351257627217,0.648400085886,0.0236794870215,0.0236794870215,1.10301972753,0.282271205831,True,21.9831406936,0.27817859983
2,91,Monolingual,4,16,1.0,left,left,2732113924.0,3.0,50.0,53.0,74.0,1263000000.0,1,53.0,50.0,3.0,-0.423220812207,1.45673501041,0.0236794870215,0.0236794870215,1.10301972753,0.282271205831,True,21.7283414776,-0.243984831084
2,92,Monolingual,4,17,1.0,left,left,1961949493.0,2.0,50.0,52.0,60.0,863000000.0,1,52.0,50.0,2.0,-0.868443646116,0.648400085886,-0.65287728502,-0.65287728502,0.582727403222,0.282271205831,True,21.3972044551,-0.922588346798
2,93,Monolingual,4,18,0.0,left,right,1555189785.0,2.0,50.0,52.0,56.0,1298000000.0,1,50.0,52.0,2.0,-1.10358656187,0.417447250307,-0.65287728502,-0.65287728502,-0.457857245389,1.09456244563,False,21.1648634234,-1.39872792137
2,94,Monolingual,4,19,1.0,right,right,2383795784.0,3.0,50.0,47.0,56.0,519000000.0,1,50.0,47.0,3.0,-0.62457935741,0.417447250307,0.0236794870215,0.0236794870215,-0.457857245389,-0.936165653873,False,21.5919599214,-0.523473372842
2,95,Monolingual,4,20,0.0,left,right,3536779052.0,3.0,50.0,53.0,18.0,626000000.0,1,50.0,53.0,3.0,0.0419464614497,-1.77660468768,0.0236794870215,0.0236794870215,-0.457857245389,1.50070806554,False,21.9864822776,0.285026552418
2,96,Monolingual,4,21,1.0,right,right,1854332324.0,4.0,54.0,50.0,62.0,472000000.0,1,54.0,50.0,4.0,-0.930655842669,0.763876503675,0.700236259063,0.700236259063,1.62331205183,0.282271205831,False,21.3407905351,-1.03819814548
2,97,Monolingual,4,22,0.0,right,left,3599523664.0,4.0,54.0,50.0,24.0,1674000000.0,1,50.0,54.0,4.0,0.0782183702042,-1.43017543432,0.700236259063,0.700236259063,-0.457857245389,1.90685368544,True,22.0040673581,0.321063892389
2,98,Monolingual,4,23,1.0,left,left,3025543504.0,5.0,45.0,50.0,74.0,1297000000.0,1,50.0,45.0,5.0,-0.253592686184,1.45673501041,1.37679303111,1.37679303111,-0.457857245389,-1.74845689368,True,21.830356583,-0.0349239152846
2,99,Monolingual,4,24,1.0,left,left,2084695651.0,5.0,50.0,55.0,58.0,814000000.0,1,55.0,50.0,5.0,-0.79748556221,0.532923668097,1.37679303111,1.37679303111,2.14360437614,0.282271205831,True,21.4578887108,-0.798227292504
2,100,Monolingual,4,25,1.0,right,right,2399034675.0,4.0,54.0,50.0,62.0,1078000000.0,1,54.0,50.0,4.0,-0.615769937027,0.763876503675,0.700236259063,0.700236259063,1.62331205183,0.282271205831,False,21.5983322746,-0.510414424392
2,101,Monolingual,5,1,1.0,left,left,3457930554.34,4.0,50.0,54.0,64.0,1028000000.0,1,54.0,50.0,4.0,-0.00363491074122,0.879352921464,0.700236259063,0.700236259063,1.62331205183,0.282271205831,True,21.9639361414,0.238822454877
2,102,Monolingual,5,2,1.0,right,right,2981199426.0,3.0,50.0,47.0,28.0,530000000.0,1,50.0,47.0,3.0,-0.279227466602,-1.19922259874,0.0236794870215,0.0236794870215,-0.457857245389,-0.936165653873,False,21.8155915484,-0.0651820975784
2,103,Monolingual,5,3,1.0,right,right,3962706012.0,3.0,50.0,47.0,34.0,1019000000.0,1,50.0,47.0,3.0,0.288169736034,-0.852793345372,0.0236794870215,0.0236794870215,-0.457857245389,-0.936165653873,False,22.1001929652,0.51805538082
2,104,Monolingual,5,4,1.0,left,left,2241320427.0,2.0,50.0,52.0,58.0,607000000.0,1,52.0,50.0,2.0,-0.706942654976,0.532923668097,-0.65287728502,-0.65287728502,0.582727403222,0.282271205831,True,21.5303310055,-0.649770332038
2,105,Monolingual,5,5,1.0,right,right,2751794317.0,2.0,50.0,48.0,62.0,813000000.0,1,50.0,48.0,2.0,-0.411843812711,0.763876503675,-0.65287728502,-0.65287728502,-0.457857245389,-0.530020033971,False,21.7355190148,-0.22927580855
2,106,Monolingual,5,6,0.0,left,right,1604381151.0,1.0,50.0,51.0,60.0,516000000.0,1,50.0,51.0,1.0,-1.07514962231,0.648400085886,-1.32943405706,-1.32943405706,-0.457857245389,0.688416825733,False,21.1960039435,-1.33491123827
2,107,Monolingual,5,7,0.0,right,left,4008746059.0,2.0,52.0,50.0,68.0,1126000000.0,1,50.0,52.0,2.0,0.31478493582,1.11030575704,-0.65287728502,-0.65287728502,-0.457857245389,1.09456244563,True,22.1117443259,0.541727738258
2,108,Monolingual,5,8,1.0,right,right,6236220233.0,3.0,53.0,50.0,34.0,1264000000.0,1,53.0,50.0,3.0,1.60246107911,-0.852793345372,0.0236794870215,0.0236794870215,1.10301972753,0.282271205831,False,22.5536401039,1.44731064862
2,109,Monolingual,5,9,1.0,right,right,3583525350.0,3.0,53.0,50.0,38.0,862000000.0,1,53.0,50.0,3.0,0.06896993648,-0.621840509794,0.0236794870215,0.0236794870215,1.10301972753,0.282271205831,False,21.9996128875,0.311935286318
2,110,Monolingual,5,10,1.0,right,right,4036324130.0,2.0,52.0,50.0,62.0,613000000.0,1,52.0,50.0,2.0,0.330727488384,0.763876503675,-0.65287728502,-0.65287728502,0.582727403222,0.282271205831,False,22.1186002459,0.555777666645
2,111,Monolingual,5,11,1.0,right,right,5252595996.0,2.0,50.0,48.0,62.0,718000000.0,1,50.0,48.0,2.0,1.03383968779,0.763876503675,-0.65287728502,-0.65287728502,-0.457857245389,-0.530020033971,False,22.3819882668,1.09554224988
2,112,Monolingual,5,12,1.0,left,left,2729620908.0,1.0,50.0,51.0,68.0,629000000.0,1,51.0,50.0,1.0,-0.4246619949,1.11030575704,-1.32943405706,-1.32943405706,0.0624350789167,0.282271205831,True,21.727428575,-0.245855654712
2,113,Monolingual,5,13,1.0,left,left,4616460121.0,1.0,50.0,51.0,30.0,1201000000.0,1,51.0,50.0,1.0,0.66609715695,-1.08374618095,-1.32943405706,-1.32943405706,0.0624350789167,0.282271205831,True,22.2528940408,0.830987731166
2,114,Monolingual,5,14,1.0,left,left,4040593810.0,1.0,49.0,50.0,58.0,577000000.0,1,50.0,49.0,1.0,0.333195739257,0.532923668097,-1.32943405706,-1.32943405706,-0.457857245389,-0.12387441407,True,22.1196575008,0.55794431314
2,115,Monolingual,5,15,1.0,right,right,1805854048.0,1.0,51.0,50.0,58.0,424000000.0,1,51.0,50.0,1.0,-0.958680553439,0.532923668097,-1.32943405706,-1.32943405706,0.0624350789167,0.282271205831,False,21.3142994736,-1.09248663095
2,116,Monolingual,5,16,1.0,left,left,3901174838.0,1.0,49.0,50.0,28.0,2704000000.0,1,50.0,49.0,1.0,0.252599301255,-1.19922259874,-1.32943405706,-1.32943405706,-0.457857245389,-0.12387441407,True,22.0845435852,0.485984897757
2,117,Monolingual,5,17,1.0,left,left,1706674061.0,1.0,50.0,51.0,60.0,473000000.0,1,51.0,50.0,1.0,-1.01601531612,0.648400085886,-1.32943405706,-1.32943405706,0.0624350789167,0.282271205831,True,21.2578123199,-1.2082465082
2,118,Monolingual,5,18,0.0,left,right,2994084447.0,1.0,50.0,51.0,38.0,692000000.0,1,50.0,51.0,1.0,-0.271778790275,-0.621840509794,-1.32943405706,-1.32943405706,-0.457857245389,0.688416825733,False,21.819904328,-0.0563438609893
2,119,Monolingual,5,19,0.0,right,left,6604877474.0,2.0,52.0,50.0,20.0,1910000000.0,1,50.0,52.0,2.0,1.81557741501,-1.6611282699,-0.65287728502,-0.65287728502,-0.457857245389,1.09456244563,True,22.6110742243,1.5650111573
2,120,Monolingual,5,20,1.0,left,left,9181274932.0,3.0,47.0,50.0,22.0,1442000000.0,1,50.0,47.0,3.0,3.30496193,-1.54565185211,0.0236794870215,0.0236794870215,-0.457857245389,-0.936165653873,True,22.9404319134,2.23996826149
2,121,Monolingual,5,21,0.0,left,right,3866335182.0,3.0,50.0,53.0,36.0,860000000.0,1,50.0,53.0,3.0,0.232458913369,-0.737316927583,0.0236794870215,0.0236794870215,-0.457857245389,1.50070806554,False,22.0755729139,0.467601181426
2,122,Monolingual,5,22,1.0,left,left,2447376082.0,4.0,46.0,50.0,66.0,953000000.0,1,50.0,46.0,4.0,-0.587824348587,0.994829339253,0.700236259063,0.700236259063,-0.457857245389,-1.34231127377,True,21.6182823006,-0.469530570069
2,123,Monolingual,5,23,1.0,left,left,2104593420.0,4.0,50.0,54.0,68.0,813000000.0,1,54.0,50.0,4.0,-0.785982900251,1.11030575704,0.700236259063,0.700236259063,1.62331205183,0.282271205831,True,21.4673881358,-0.778759994218
2,124,Monolingual,5,24,1.0,left,left,1631819285.0,3.0,47.0,50.0,72.0,815000000.0,1,50.0,47.0,3.0,-1.05928796565,1.34125859262,0.0236794870215,0.0236794870215,-0.457857245389,-0.936165653873,True,21.2129613551,-1.30016018845
2,125,Monolingual,5,25,1.0,right,right,6474693915.0,3.0,50.0,47.0,38.0,831000000.0,1,50.0,47.0,3.0,1.74031985866,-0.621840509794,0.0236794870215,0.0236794870215,-0.457857245389,-0.936165653873,False,22.5911671716,1.52421536884
2,126,Monolingual,6,1,0.0,right,left,3523862013.06,2.0,52.0,50.0,64.0,439000000.0,1,50.0,52.0,2.0,0.0344792759357,0.879352921464,-0.65287728502,-0.65287728502,-0.457857245389,1.09456244563,True,21.9828233879,0.277528341015
2,127,Monolingual,6,2,1.0,left,left,3102341981.0,3.0,50.0,53.0,58.0,802000000.0,1,53.0,50.0,3.0,-0.209196406385,0.532923668097,0.0236794870215,0.0236794870215,1.10301972753,0.282271205831,True,21.8554231409,0.0164453161002
2,128,Monolingual,6,3,0.0,left,right,5719230832.0,3.0,47.0,50.0,26.0,751000000.0,1,47.0,50.0,3.0,1.30359569796,-1.31469901653,0.0236794870215,0.0236794870215,-2.01873421831,0.282271205831,False,22.4671001634,1.2699631945
2,129,Monolingual,6,4,1.0,left,left,3799679112.0,4.0,50.0,54.0,64.0,599000000.0,1,54.0,50.0,4.0,0.193925837589,0.879352921464,0.700236259063,0.700236259063,1.62331205183,0.282271205831,True,22.0581824559,0.431962683913
2,130,Monolingual,6,5,1.0,right,right,1710120058.0,4.0,50.0,46.0,62.0,766000000.0,1,50.0,46.0,4.0,-1.01402322653,0.763876503675,0.700236259063,0.700236259063,-0.457857245389,-1.34231127377,False,21.2598294144,-1.20411284972
2,131,Monolingual,6,6,1.0,left,left,3679565885.0,3.0,50.0,53.0,20.0,1509000000.0,1,53.0,50.0,3.0,0.124489819562,-1.6611282699,0.0236794870215,0.0236794870215,1.10301972753,0.282271205831,True,22.0260606161,0.366134969353
2,132,Monolingual,6,7,1.0,right,right,4153803436.0,3.0,53.0,50.0,70.0,745000000.0,1,53.0,50.0,3.0,0.398640868226,1.22578217483,0.0236794870215,0.0236794870215,1.10301972753,0.282271205831,False,22.1472902421,0.614572458309
2,133,Monolingual,6,8,0.0,right,left,7339795299.0,2.0,52.0,50.0,14.0,1515000000.0,1,50.0,52.0,2.0,2.24042460811,-2.00755752326,-0.65287728502,-0.65287728502,-0.457857245389,1.09456244563,True,22.7165767908,1.78121897366
2,134,Monolingual,6,9,1.0,left,left,5032802257.0,3.0,47.0,50.0,60.0,707000000.0,1,50.0,47.0,3.0,0.90677955957,0.648400085886,0.0236794870215,0.0236794870215,-0.457857245389,-0.936165653873,True,22.3392427747,1.00794334296
2,135,Monolingual,6,10,0.0,right,left,1882605309.0,3.0,53.0,50.0,36.0,1848000000.0,1,50.0,53.0,3.0,-0.914311568644,-0.737316927583,0.0236794870215,0.0236794870215,-0.457857245389,1.50070806554,True,21.3559224571,-1.00718809585
2,136,Monolingual,6,11,1.0,left,left,1458933929.0,4.0,46.0,50.0,82.0,1020000000.0,1,50.0,46.0,4.0,-1.15923091944,1.91864068157,0.700236259063,0.700236259063,-0.457857245389,-1.34231127377,True,21.1009718203,-1.52966183542
2,137,Monolingual,6,12,1.0,right,right,2026582266.0,4.0,50.0,46.0,64.0,902000000.0,1,50.0,46.0,4.0,-0.831080214101,0.879352921464,0.700236259063,0.700236259063,-0.457857245389,-1.34231127377,False,21.4296165983,-0.856165709593
2,138,Monolingual,6,13,0.0,right,left,6394277818.0,3.0,53.0,50.0,62.0,2686000000.0,1,50.0,53.0,3.0,1.69383227606,0.763876503675,0.0236794870215,0.0236794870215,-0.457857245389,1.50070806554,True,22.5786693364,1.49860338859
2,139,Monolingual,6,14,1.0,left,left,1764353899.0,4.0,50.0,54.0,32.0,954000000.0,1,54.0,50.0,4.0,-0.982671292561,-0.968269763161,0.700236259063,0.700236259063,1.62331205183,0.282271205831,True,21.2910503974,-1.1401312728
2,140,Monolingual,6,15,1.0,left,left,2146136473.0,4.0,50.0,54.0,60.0,582000000.0,1,54.0,50.0,4.0,-0.761967358841,0.648400085886,0.700236259063,0.700236259063,1.62331205183,0.282271205831,True,21.4869350733,-0.738702194593
2,141,Monolingual,6,16,1.0,left,left,5194596943.0,3.0,50.0,53.0,64.0,1084000000.0,1,53.0,50.0,3.0,1.00031112986,0.879352921464,0.0236794870215,0.0236794870215,1.10301972753,0.282271205831,True,22.3708848729,1.07278791683
2,142,Monolingual,6,17,1.0,left,left,2269497718.0,3.0,47.0,50.0,64.0,787000000.0,1,50.0,47.0,3.0,-0.690653700506,0.879352921464,0.0236794870215,0.0236794870215,-0.457857245389,-0.936165653873,True,21.5428243744,-0.624167504615
2,143,Monolingual,6,18,1.0,left,left,1895890388.0,2.0,50.0,52.0,70.0,856000000.0,1,52.0,50.0,2.0,-0.906631623579,1.22578217483,-0.65287728502,-0.65287728502,0.582727403222,0.282271205831,True,21.3629544269,-0.992777386451
2,144,Monolingual,6,19,0.0,left,right,3133708610.0,2.0,50.0,52.0,72.0,831000000.0,1,50.0,52.0,2.0,-0.191063733814,1.34125859262,-0.65287728502,-0.65287728502,-0.457857245389,1.09456244563,False,21.8654829995,0.0370611184341
2,145,Monolingual,6,20,0.0,left,right,6532076383.0,3.0,47.0,50.0,26.0,876000000.0,1,47.0,50.0,3.0,1.77349197619,-1.31469901653,0.0236794870215,0.0236794870215,-2.01873421831,0.282271205831,False,22.5999907056,1.54229755482
2,146,Monolingual,6,21,0.0,left,right,7391952299.0,4.0,50.0,54.0,28.0,1359000000.0,1,50.0,54.0,4.0,2.27057594517,-1.19922259874,0.700236259063,0.700236259063,-0.457857245389,1.90685368544,False,22.7236577182,1.79573001269
2,147,Monolingual,6,22,0.0,left,right,5427072219.0,5.0,50.0,55.0,14.0,1847000000.0,1,50.0,55.0,5.0,1.13470230274,-2.00755752326,1.37679303111,1.37679303111,-0.457857245389,2.31299930534,False,22.4146656393,1.16250842513
2,148,Monolingual,6,23,1.0,left,left,3815515706.0,6.0,44.0,50.0,66.0,1235000000.0,1,50.0,44.0,6.0,0.203080782918,0.994829339253,2.05334980315,2.05334980315,-0.457857245389,-2.15460251358,True,22.0623416711,0.440486218982
2,149,Monolingual,6,24,0.0,right,left,8546217774.0,6.0,50.0,44.0,8.0,1128000000.0,1,44.0,50.0,6.0,2.93784299254,-2.35398677663,2.05334980315,2.05334980315,-3.57961119122,0.282271205831,True,22.8687546564,2.09307910293
2,150,Monolingual,6,25,1.0,left,left,2413187997.0,7.0,43.0,50.0,72.0,660000000.0,1,50.0,43.0,7.0,-0.607588071082,1.34125859262,2.72990657519,2.72990657519,-0.457857245389,-2.56074813348,True,21.6042145306,-0.498359838763
2,151,Monolingual,7,1,1.0,right,right,4426201389.38,7.0,57.0,50.0,62.0,610000000.0,1,57.0,50.0,7.0,0.556110862779,0.763876503675,2.72990657519,2.72990657519,3.18418902475,0.282271205831,False,22.210807579,0.744739383809
2,152,Monolingual,7,2,0.0,left,right,3586292689.0,6.0,44.0,50.0,36.0,982000000.0,1,44.0,50.0,6.0,0.0705697020137,-0.737316927583,2.05334980315,2.05334980315,-3.57961119122,0.282271205831,False,22.0003848287,0.313517235808
2,153,Monolingual,7,3,1.0,left,left,2532365798.0,7.0,43.0,50.0,60.0,581000000.0,1,50.0,43.0,7.0,-0.538692811622,0.648400085886,2.72990657519,2.72990657519,-0.457857245389,-2.56074813348,True,21.6524198008,-0.399572135849
2,154,Monolingual,7,4,1.0,left,left,2128976559.0,7.0,43.0,50.0,56.0,1453000000.0,1,50.0,43.0,7.0,-0.771887299613,0.417447250307,2.72990657519,2.72990657519,-0.457857245389,-2.56074813348,True,21.4789072125,-0.755153796773
2,155,Monolingual,7,5,1.0,right,right,2478358031.0,6.0,56.0,50.0,62.0,517000000.0,1,56.0,50.0,6.0,-0.569914054916,0.763876503675,2.05334980315,2.05334980315,2.66389670045,0.282271205831,False,21.6308620936,-0.44375063268
2,156,Monolingual,7,6,1.0,right,right,3699515587.0,6.0,50.0,44.0,28.0,906000000.0,1,50.0,44.0,6.0,0.136022503366,-1.19922259874,2.05334980315,2.05334980315,-0.457857245389,-2.15460251358,False,22.0314677256,0.377215830864
2,157,Monolingual,7,7,1.0,right,right,2427760088.0,5.0,50.0,45.0,62.0,452000000.0,1,50.0,45.0,5.0,-0.599164119793,0.763876503675,1.37679303111,1.37679303111,-0.457857245389,-1.74845689368,False,21.6102348947,-0.486022226349
2,158,Monolingual,7,8,1.0,left,left,1268264429.0,5.0,45.0,50.0,74.0,1003000000.0,1,50.0,45.0,5.0,-1.2694546739,1.45673501041,1.37679303111,1.37679303111,-0.457857245389,-1.74845689368,True,20.9609152114,-1.8166817116
2,159,Monolingual,7,9,0.0,left,right,5221545616.0,4.0,46.0,50.0,56.0,1047000000.0,1,46.0,50.0,4.0,1.01588983498,0.417447250307,0.700236259063,0.700236259063,-2.53902654261,0.282271205831,False,22.37605929,1.0833919188
2,160,Monolingual,7,10,1.0,right,right,2988877760.0,5.0,55.0,50.0,30.0,927000000.0,1,55.0,50.0,5.0,-0.274788713674,-1.08374618095,1.37679303111,1.37679303111,2.14360437614,0.282271205831,False,21.8181638228,-0.0599107014345
2,161,Monolingual,7,11,0.0,right,left,3222707783.0,5.0,55.0,50.0,28.0,909000000.0,1,50.0,55.0,5.0,-0.139614377775,-1.19922259874,1.37679303111,1.37679303111,-0.457857245389,2.31299930534,True,21.8934877695,0.0944516669988
2,162,Monolingual,7,12,0.0,right,left,2277872847.0,6.0,56.0,50.0,36.0,1233000000.0,1,50.0,56.0,6.0,-0.685812138734,-0.737316927583,2.05334980315,2.05334980315,-0.457857245389,2.71914492524,True,21.5465078826,-0.616618842064
2,163,Monolingual,7,13,1.0,right,right,5427809567.0,7.0,50.0,43.0,56.0,938000000.0,1,50.0,43.0,7.0,1.13512855479,0.417447250307,2.72990657519,2.72990657519,-0.457857245389,-2.56074813348,False,22.4148014948,1.16278683574
2,164,Monolingual,7,14,1.0,left,left,1792387757.0,7.0,43.0,50.0,74.0,814000000.0,1,50.0,43.0,7.0,-0.966465254991,1.45673501041,2.72990657519,2.72990657519,-0.457857245389,-2.56074813348,True,21.3068145103,-1.10782566598
2,165,Monolingual,7,15,1.0,left,left,2238834444.0,6.0,44.0,50.0,50.0,1078000000.0,1,50.0,44.0,6.0,-0.708379771976,0.0710179969403,2.05334980315,2.05334980315,-0.457857245389,-2.15460251358,True,21.5292212299,-0.65204460995
2,166,Monolingual,7,16,1.0,right,right,8640873737.0,6.0,56.0,50.0,64.0,1925000000.0,1,56.0,50.0,6.0,2.99256247113,0.879352921464,2.05334980315,2.05334980315,2.66389670045,0.282271205831,False,22.8797695416,2.11565205407
2,167,Monolingual,7,17,1.0,left,left,1495292762.0,5.0,50.0,55.0,64.0,1253000000.0,1,55.0,50.0,5.0,-1.13821231353,0.879352921464,1.37679303111,1.37679303111,2.14360437614,0.282271205831,True,21.125587852,-1.4792158734
2,168,Monolingual,7,18,1.0,right,right,3407438687.0,5.0,50.0,45.0,62.0,627000000.0,1,50.0,45.0,5.0,-0.0328236545492,0.763876503675,1.37679303111,1.37679303111,-0.457857245389,-1.74845689368,False,21.9492267278,0.20867825751
2,169,Monolingual,7,19,1.0,left,left,1354155916.0,4.0,46.0,50.0,32.0,969000000.0,1,50.0,46.0,4.0,-1.21980183392,-0.968269763161,0.700236259063,0.700236259063,-0.457857245389,-1.34231127377,True,21.0264441569,-1.68239236978
2,170,Monolingual,7,20,1.0,left,left,1359497805.0,4.0,50.0,54.0,72.0,470000000.0,1,54.0,50.0,4.0,-1.21671375186,1.34125859262,0.700236259063,0.700236259063,1.62331205183,0.282271205831,True,21.0303812075,-1.67432411964
2,171,Monolingual,7,21,1.0,right,right,6639156398.0,3.0,53.0,50.0,60.0,940000000.0,1,53.0,50.0,3.0,1.83539365045,0.648400085886,0.0236794870215,0.0236794870215,1.10301972753,0.282271205831,False,22.6162507439,1.57561946797
2,172,Monolingual,7,22,1.0,right,right,2648303927.0,3.0,53.0,50.0,64.0,985000000.0,1,53.0,50.0,3.0,-0.471670367747,0.879352921464,0.0236794870215,0.0236794870215,1.10301972753,0.282271205831,False,21.6971852445,-0.307833715123
2,173,Monolingual,7,23,0.0,left,right,3679227565.0,2.0,50.0,52.0,36.0,1047000000.0,1,50.0,52.0,2.0,0.124294240822,-0.737316927583,-0.65287728502,-0.65287728502,-0.457857245389,1.09456244563,False,22.0259686663,0.365946535287
2,174,Monolingual,7,24,1.0,left,left,2587938987.0,3.0,47.0,50.0,34.0,719000000.0,1,50.0,47.0,3.0,-0.506566616617,-0.852793345372,0.0236794870215,0.0236794870215,-0.457857245389,-0.936165653873,True,21.674127638,-0.355085975651
2,175,Monolingual,7,25,1.0,left,left,2400728479.0,3.0,47.0,50.0,72.0,732000000.0,1,50.0,47.0,3.0,-0.61479076922,1.34125859262,0.0236794870215,0.0236794870215,-0.457857245389,-0.936165653873,True,21.5990380612,-0.508968046662
2,176,Monolingual,8,1,1.0,right,right,6352849412.63,2.0,50.0,48.0,34.0,797000000.0,1,50.0,48.0,2.0,1.66988301108,-0.852793345372,-0.65287728502,-0.65287728502,-0.457857245389,-0.530020033971,False,22.5721692756,1.48528272725
2,177,Monolingual,8,2,1.0,left,left,1542744334.0,2.0,48.0,50.0,58.0,1094000000.0,1,50.0,48.0,2.0,-1.11078112804,0.532923668097,-0.65287728502,-0.65287728502,-0.457857245389,-0.530020033971,True,21.1568287025,-1.41519358198
2,178,Monolingual,8,3,1.0,right,right,1620416129.0,1.0,50.0,49.0,62.0,1640000000.0,1,50.0,49.0,1.0,-1.06587999357,0.763876503675,-1.32943405706,-1.32943405706,-0.457857245389,-0.12387441407,False,21.205948823,-1.31453106413
2,179,Monolingual,8,4,0.0,right,left,6799636194.0,1.0,51.0,50.0,50.0,1074000000.0,1,50.0,51.0,1.0,1.92816509857,0.0710179969403,-1.32943405706,-1.32943405706,-0.457857245389,0.688416825733,True,22.6401349468,1.62456568355
2,180,Monolingual,8,5,0.0,right,left,3137859560.0,2.0,52.0,50.0,58.0,458000000.0,1,50.0,52.0,2.0,-0.188664119331,0.532923668097,-0.65287728502,-0.65287728502,-0.457857245389,1.09456244563,True,21.8668067356,0.0397738684823
2,181,Monolingual,8,6,1.0,right,right,1964354386.0,3.0,50.0,47.0,56.0,1297000000.0,1,50.0,47.0,3.0,-0.867053406275,0.417447250307,0.0236794870215,0.0236794870215,-0.457857245389,-0.936165653873,False,21.3984294715,-0.920077904377
2,182,Monolingual,8,7,0.0,right,left,1459707530.0,3.0,53.0,50.0,34.0,1031000000.0,1,50.0,53.0,3.0,-1.15878370997,-0.852793345372,0.0236794870215,0.0236794870215,-0.457857245389,1.50070806554,True,21.1015019307,-1.52857547321
2,183,Monolingual,8,8,1.0,right,right,1734182350.0,4.0,50.0,46.0,62.0,2471000000.0,1,50.0,46.0,4.0,-1.0001131037,0.763876503675,0.700236259063,0.700236259063,-0.457857245389,-1.34231127377,False,21.2738018713,-1.17547890748
2,184,Monolingual,8,9,1.0,right,right,4966372630.0,4.0,54.0,50.0,64.0,1934000000.0,1,54.0,50.0,4.0,0.868377387777,0.879352921464,0.700236259063,0.700236259063,1.62331205183,0.282271205831,False,22.3259555575,0.980713671545
2,185,Monolingual,8,10,1.0,left,left,6697038800.0,3.0,50.0,53.0,16.0,829000000.0,1,53.0,50.0,3.0,1.86885477383,-1.89208110547,0.0236794870215,0.0236794870215,1.10301972753,0.282271205831,True,22.6249312955,1.59340863817
2,186,Monolingual,8,11,1.0,right,right,5379318380.0,3.0,53.0,50.0,64.0,2713000000.0,1,53.0,50.0,3.0,1.10709638033,0.879352921464,0.0236794870215,0.0236794870215,1.10301972753,0.282271205831,False,22.4058275079,1.14439632468
2,187,Monolingual,8,12,0.0,right,left,1296229780.0,2.0,52.0,50.0,70.0,610000000.0,1,50.0,52.0,2.0,-1.2532882394,1.22578217483,-0.65287728502,-0.65287728502,-0.457857245389,1.09456244563,True,20.9827257185,-1.77198514856
2,188,Monolingual,8,13,1.0,right,right,7174738280.0,3.0,50.0,47.0,30.0,862000000.0,1,50.0,47.0,3.0,2.14500712219,-1.08374618095,0.0236794870215,0.0236794870215,-0.457857245389,-0.936165653873,False,22.6938321213,1.73460801918
2,189,Monolingual,8,14,1.0,left,left,1379989330.0,3.0,47.0,50.0,26.0,813000000.0,1,50.0,47.0,3.0,-1.20486784667,-1.31469901653,0.0236794870215,0.0236794870215,-0.457857245389,-0.936165653873,True,21.0453416042,-1.64366557914
2,190,Monolingual,8,15,0.0,left,right,5005850070.0,2.0,50.0,52.0,58.0,1826000000.0,1,50.0,52.0,2.0,0.89119882305,0.532923668097,-0.65287728502,-0.65287728502,-0.457857245389,1.09456244563,False,22.3338730794,0.996939154922
2,191,Monolingual,8,16,1.0,right,right,5323434130.0,3.0,53.0,50.0,32.0,1925000000.0,1,53.0,50.0,3.0,1.07479036468,-0.968269763161,0.0236794870215,0.0236794870215,1.10301972753,0.282271205831,False,22.3953844452,1.12299521699
2,192,Monolingual,8,17,0.0,right,left,4029547090.0,3.0,53.0,50.0,70.0,2264000000.0,1,50.0,53.0,3.0,0.326809762723,1.22578217483,0.0236794870215,0.0236794870215,-0.457857245389,1.50070806554,True,22.116919822,0.552333951433
2,193,Monolingual,8,18,1.0,left,left,4350280100.0,4.0,46.0,50.0,32.0,1359000000.0,1,50.0,46.0,4.0,0.512221674638,-0.968269763161,0.700236259063,0.700236259063,-0.457857245389,-1.34231127377,True,22.1935060708,0.709283172342
2,194,Monolingual,8,19,1.0,left,left,5696811610.0,4.0,50.0,54.0,60.0,771000000.0,1,54.0,50.0,4.0,1.29063541422,0.648400085886,0.700236259063,0.700236259063,1.62331205183,0.282271205831,True,22.4631724886,1.26191415827
2,195,Monolingual,8,20,1.0,right,right,4563545840.0,3.0,50.0,47.0,14.0,1936000000.0,1,50.0,47.0,3.0,0.635508044816,-2.00755752326,0.0236794870215,0.0236794870215,-0.457857245389,-0.936165653873,False,22.2413657548,0.807362660974
2,196,Monolingual,8,21,1.0,right,right,7580180610.0,3.0,50.0,47.0,56.0,985000000.0,1,50.0,47.0,3.0,2.3793884775,0.417447250307,0.0236794870215,0.0236794870215,-0.457857245389,-0.936165653873,False,22.7488028635,1.84726029422
2,197,Monolingual,8,22,1.0,left,left,8468269030.0,2.0,50.0,52.0,12.0,1203000000.0,1,52.0,50.0,2.0,2.89278175716,-2.12303394105,-0.65287728502,-0.65287728502,0.582727403222,0.282271205831,True,22.8595919599,2.07430186681
2,198,Monolingual,8,23,1.0,left,left,1476048270.0,2.0,50.0,52.0,60.0,825000000.0,1,52.0,50.0,2.0,-1.14933732388,0.648400085886,-0.65287728502,-0.65287728502,0.582727403222,0.282271205831,True,21.1126342658,-1.50576183033
2,199,Monolingual,8,24,0.0,right,left,4810518850.0,1.0,50.0,49.0,34.0,877000000.0,1,49.0,50.0,1.0,0.778280184096,-0.852793345372,-1.32943405706,-1.32943405706,-0.978149569695,0.282271205831,True,22.2940707843,0.915371780673
2,200,Monolingual,8,25,1.0,left,left,6560182570.0,2.0,48.0,50.0,30.0,423000000.0,1,50.0,48.0,2.0,1.78973982629,-1.08374618095,-0.65287728502,-0.65287728502,-0.457857245389,-0.530020033971,True,22.6042842703,1.55109641413
3,1,Monolingual,1,1,1.0,left,left,6432478152.0,5.0,50.0,55.0,76.0,863000000.0,1,55.0,50.0,5.0,4.71698300236,0.624475605572,0.132415861048,0.132415861048,1.20461853711,0.410659727763,True,22.5846257056,3.2135420226
3,2,Monolingual,1,2,0.0,right,left,1425916958.0,5.0,50.0,45.0,72.0,1000000000.0,1,45.0,50.0,5.0,-0.990639578315,0.491537743822,0.132415861048,0.132415861048,-1.78080534668,0.410659727763,True,21.078080923,-1.22073642514
3,3,Monolingual,1,3,1.0,left,left,1687441266.0,6.0,44.0,50.0,76.0,813000000.0,1,50.0,44.0,6.0,-0.692494406829,0.624475605572,0.651693747513,0.651693747513,-0.288093404785,-1.31238808103,True,21.2464791748,-0.72508256406
3,4,Monolingual,1,4,1.0,right,right,1507150129.0,6.0,56.0,50.0,84.0,923000000.0,1,56.0,50.0,6.0,-0.898031446079,0.890351329073,0.651693747513,0.651693747513,1.50316092548,0.410659727763,False,21.1334863727,-1.05765916758
3,5,Monolingual,1,5,1.0,left,left,1339142274.0,5.0,50.0,55.0,100.0,1390000000.0,1,55.0,50.0,5.0,-1.08956519345,1.42210277607,0.132415861048,0.132415861048,1.20461853711,0.410659727763,True,21.0152951519,-1.40553650196
3,6,Monolingual,1,6,1.0,left,left,1547313680.0,5.0,45.0,50.0,84.0,1079000000.0,1,50.0,45.0,5.0,-0.852243852215,0.890351329073,0.132415861048,0.132415861048,-0.288093404785,-1.02521344623,True,21.1597861546,-0.980249881511
3,7,Monolingual,1,7,1.0,left,left,1833344125.0,4.0,46.0,50.0,74.0,1080000000.0,1,50.0,46.0,4.0,-0.526160985476,0.558006674697,-0.386862025416,-0.386862025416,-0.288093404785,-0.738038811435,True,21.3294075269,-0.480995956989
3,8,Monolingual,1,8,1.0,left,left,1716516273.0,4.0,46.0,50.0,82.0,1202000000.0,1,50.0,46.0,4.0,-0.659348069442,0.823882398198,-0.386862025416,-0.386862025416,-0.288093404785,-0.738038811435,True,21.2635626512,-0.674800028809
3,9,Monolingual,1,9,0.0,right,left,1695769348.0,3.0,50.0,47.0,86.0,1328000000.0,1,47.0,50.0,3.0,-0.683000155779,0.956820259948,-0.90613991188,-0.90613991188,-1.18372056992,0.410659727763,True,21.2514023674,-0.710591918092
3,10,Monolingual,1,10,0.0,right,left,1979097152.0,4.0,54.0,50.0,26.0,671000000.0,1,50.0,54.0,4.0,-0.359998376877,-1.03724766631,-0.386862025416,-0.386862025416,-0.288093404785,1.55935826696,True,21.4059065938,-0.255832943045
3,11,Monolingual,1,11,0.0,right,left,2172246803.0,5.0,50.0,45.0,62.0,1747000000.0,1,45.0,50.0,5.0,-0.139802264859,0.159193089446,0.132415861048,0.132415861048,-1.78080534668,0.410659727763,True,21.4990278619,0.018254914812
3,12,Monolingual,1,12,1.0,right,right,1680634265.0,6.0,50.0,44.0,78.0,1036000000.0,1,50.0,44.0,6.0,-0.700254582149,0.690944536447,0.651693747513,0.651693747513,-0.288093404785,-1.31238808103,False,21.2424370978,-0.736979784108
3,13,Monolingual,1,13,1.0,left,left,1850189775.0,6.0,50.0,56.0,70.0,1315000000.0,1,56.0,50.0,6.0,-0.506956463929,0.425068812947,0.651693747513,0.651693747513,1.50316092548,0.410659727763,True,21.3385540519,-0.454074594199
3,14,Monolingual,1,14,0.0,right,left,1508664478.0,5.0,50.0,45.0,80.0,1246000000.0,1,45.0,50.0,5.0,-0.89630504502,0.757413467323,0.132415861048,0.132415861048,-1.78080534668,0.410659727763,True,21.1344906448,-1.05470325026
3,15,Monolingual,1,15,1.0,right,right,1390204293.0,6.0,56.0,50.0,100.0,1077000000.0,1,56.0,50.0,6.0,-1.03135303517,1.42210277607,0.651693747513,0.651693747513,1.50316092548,0.410659727763,False,21.0527165467,-1.29539249158
3,16,Monolingual,1,16,1.0,left,left,2089880924.0,6.0,50.0,56.0,68.0,1016000000.0,1,56.0,50.0,6.0,-0.233701716527,0.358599882072,0.651693747513,0.651693747513,1.50316092548,0.410659727763,True,21.4603729271,-0.0955198274059
3,17,Monolingual,1,17,1.0,left,left,1640107785.0,5.0,50.0,55.0,100.0,859000000.0,1,55.0,50.0,5.0,-0.746455925427,1.42210277607,0.132415861048,0.132415861048,1.20461853711,0.410659727763,True,21.2180277992,-0.808824728937
3,18,Monolingual,1,18,1.0,left,left,1804487123.0,5.0,45.0,50.0,100.0,941000000.0,1,50.0,45.0,5.0,-0.559058790944,1.42210277607,0.132415861048,0.132415861048,-0.288093404785,-1.02521344623,True,21.313542246,-0.527692924733
3,19,Monolingual,1,19,1.0,left,left,1476973329.0,4.0,46.0,50.0,100.0,842000000.0,1,50.0,46.0,4.0,-0.932433858917,1.42210277607,-0.386862025416,-0.386862025416,-0.288093404785,-0.738038811435,True,21.1132607828,-1.11719002164
3,20,Monolingual,1,20,1.0,left,left,1607081553.0,4.0,50.0,54.0,86.0,921000000.0,1,54.0,50.0,4.0,-0.784106772028,0.956820259948,-0.386862025416,-0.386862025416,0.906076148728,0.410659727763,True,21.197685671,-0.868698594996
3,21,Monolingual,1,21,1.0,left,left,1621898096.0,3.0,47.0,50.0,70.0,660000000.0,1,50.0,47.0,3.0,-0.767215490345,0.425068812947,-0.90613991188,-0.90613991188,-0.288093404785,-0.450864176635,True,21.2068629645,-0.841686669897
3,22,Monolingual,1,22,1.0,right,right,1414662732.0,3.0,50.0,47.0,100.0,918000000.0,1,50.0,47.0,3.0,-1.003469717,1.42210277607,-0.90613991188,-0.90613991188,-0.288093404785,-0.450864176635,False,21.0701569877,-1.24405928688
3,23,Monolingual,1,23,0.0,right,left,1644913336.0,2.0,50.0,48.0,78.0,1934000000.0,1,48.0,50.0,2.0,-0.740977460201,0.690944536447,-1.42541779834,-1.42541779834,-0.885178181542,0.410659727763,True,21.2209535365,-0.800213279716
3,24,Monolingual,1,24,0.0,right,left,1165996128.0,3.0,50.0,47.0,74.0,561000000.0,1,47.0,50.0,3.0,-1.28695673914,0.558006674697,-0.90613991188,-0.90613991188,-1.18372056992,0.410659727763,True,20.8768416041,-1.81305282023
3,25,Monolingual,1,25,0.0,right,left,1232931987.0,4.0,54.0,50.0,100.0,1141000000.0,1,50.0,54.0,4.0,-1.21064795043,1.42210277607,-0.386862025416,-0.386862025416,-0.288093404785,1.55935826696,True,20.932660899,-1.64875747419
3,26,Monolingual,2,1,1.0,left,left,3538978776.45,5.0,50.0,55.0,96.0,799000000.0,1,55.0,50.0,5.0,1.41831117291,1.28916491432,0.132415861048,0.132415861048,1.20461853711,0.410659727763,True,21.9871040412,1.45483065273
3,27,Monolingual,2,2,0.0,right,left,2668107764.0,5.0,50.0,45.0,36.0,956000000.0,1,45.0,50.0,5.0,0.425493375844,-0.704903011931,0.132415861048,0.132415861048,-1.78080534668,0.410659727763,True,21.7046353555,0.623428347348
3,28,Monolingual,2,3,0.0,left,right,3100255962.0,6.0,50.0,56.0,24.0,798000000.0,1,50.0,56.0,6.0,0.918154649227,-1.10371659718,0.651693747513,0.651693747513,-0.288093404785,2.13370753656,False,21.8547505134,1.06526878725
3,29,Monolingual,2,4,1.0,right,right,1958802559.0,7.0,50.0,43.0,28.0,642000000.0,1,50.0,43.0,7.0,-0.38313479183,-0.970778735432,1.17097163398,1.17097163398,-0.288093404785,-1.59956271583,False,21.3955991842,-0.286171187783
3,30,Monolingual,2,5,0.0,right,left,1386139420.0,7.0,50.0,43.0,80.0,591000000.0,1,43.0,50.0,7.0,-1.03598710635,0.757413467323,1.17097163398,1.17097163398,-2.37789012343,0.410659727763,True,21.0497883243,-1.30401125523
3,31,Monolingual,2,6,1.0,left,left,1998469363.0,8.0,50.0,58.0,70.0,607000000.0,1,58.0,50.0,8.0,-0.337913503716,0.425068812947,1.69024952044,1.69024952044,2.10024570224,0.410659727763,True,21.415647406,-0.227162389069
3,32,Monolingual,2,7,1.0,right,right,2045019738.0,8.0,58.0,50.0,20.0,628000000.0,1,58.0,50.0,8.0,-0.284844748298,-1.23665445893,1.69024952044,1.69024952044,2.10024570224,0.410659727763,False,21.4386732782,-0.159389342997
3,33,Monolingual,2,8,1.0,right,right,2195517533.0,7.0,50.0,43.0,72.0,566000000.0,1,50.0,43.0,7.0,-0.113272968827,0.491537743822,1.17097163398,1.17097163398,-0.288093404785,-1.59956271583,False,21.5096836338,0.0496185092617
3,34,Monolingual,2,9,0.0,left,right,1836889086.0,7.0,43.0,50.0,66.0,786000000.0,1,43.0,50.0,7.0,-0.522119628811,0.292130951196,1.17097163398,1.17097163398,-2.37789012343,0.410659727763,False,21.3313392636,-0.475310192761
3,35,Monolingual,2,10,1.0,right,right,2052790955.0,8.0,50.0,42.0,24.0,519000000.0,1,50.0,42.0,8.0,-0.275985339232,-1.10371659718,1.69024952044,1.69024952044,-0.288093404785,-1.88673735063,False,21.4424661456,-0.148225632228
3,36,Monolingual,2,11,1.0,right,right,1306107085.0,8.0,58.0,50.0,94.0,725000000.0,1,58.0,50.0,8.0,-1.12722625129,1.22269598345,1.69024952044,1.69024952044,2.10024570224,0.410659727763,False,20.9903168591,-1.47905619214
3,37,Monolingual,2,12,1.0,right,right,1646200123.0,7.0,50.0,43.0,74.0,922000000.0,1,50.0,43.0,7.0,-0.739510486314,0.558006674697,1.17097163398,1.17097163398,-0.288093404785,-1.59956271583,False,21.2217355132,-0.797911653779
3,38,Monolingual,2,13,1.0,left,left,1464827707.0,7.0,50.0,57.0,10.0,1125000000.0,1,57.0,50.0,7.0,-0.946280214469,-1.56899911331,1.17097163398,1.17097163398,1.80170331386,0.410659727763,True,21.1050034664,-1.14149413838
3,39,Monolingual,2,14,0.0,right,left,2852991771.0,6.0,56.0,50.0,24.0,782000000.0,1,50.0,56.0,6.0,0.636266417912,-1.10371659718,0.651693747513,0.651693747513,-0.288093404785,2.13370753656,True,21.7716340248,0.820628429929
3,40,Monolingual,2,15,1.0,right,right,1874402114.0,7.0,57.0,50.0,90.0,813000000.0,1,57.0,50.0,7.0,-0.479353706776,1.0897581217,1.17097163398,1.17097163398,1.80170331386,0.410659727763,False,21.351555573,-0.415806654478
3,41,Monolingual,2,16,1.0,left,left,1990518571.0,7.0,43.0,50.0,14.0,722000000.0,1,50.0,43.0,7.0,-0.346977633404,-1.43606125156,1.17097163398,1.17097163398,-0.288093404785,-1.59956271583,True,21.4116610302,-0.238895661522
3,42,Monolingual,2,17,1.0,left,left,1387944795.0,6.0,50.0,56.0,16.0,612000000.0,1,56.0,50.0,6.0,-1.03392892735,-1.36959232068,0.651693747513,0.651693747513,1.50316092548,0.410659727763,True,21.0510899252,-1.30018019698
3,43,Monolingual,2,18,0.0,left,right,2706804312.0,6.0,44.0,50.0,76.0,751000000.0,1,44.0,50.0,6.0,0.46960854444,0.624475605572,0.651693747513,0.651693747513,-2.07934773505,0.410659727763,False,21.7190345553,0.665810135352
3,44,Monolingual,2,19,0.0,left,right,2369054484.0,7.0,50.0,57.0,64.0,751000000.0,1,50.0,57.0,7.0,0.0845641057097,0.225662020321,1.17097163398,1.17097163398,-0.288093404785,2.42088217136,False,21.5857567606,0.273527835039
3,45,Monolingual,2,20,1.0,right,right,2139212269.0,8.0,58.0,50.0,64.0,1064000000.0,1,58.0,50.0,8.0,-0.177462575977,0.225662020321,1.69024952044,1.69024952044,2.10024570224,0.410659727763,False,21.4837034996,-0.0268499438977
3,46,Monolingual,2,21,0.0,right,left,1646560377.0,8.0,58.0,50.0,26.0,751000000.0,1,50.0,58.0,8.0,-0.739099786477,-1.03724766631,1.69024952044,1.69024952044,-0.288093404785,2.70805680616,True,21.221954329,-0.797267603784
3,47,Monolingual,2,22,1.0,left,left,2321733096.0,9.0,50.0,59.0,72.0,771000000.0,1,59.0,50.0,9.0,0.0306163734775,0.491537743822,2.20952740691,2.20952740691,2.39878809062,0.410659727763,True,21.5655797679,0.214140019315
3,48,Monolingual,2,23,1.0,left,left,3472106370.0,9.0,41.0,50.0,30.0,657000000.0,1,50.0,41.0,9.0,1.34207472193,-0.904309804557,2.20952740691,2.20952740691,-0.288093404785,-2.17391198543,True,21.9680272698,1.39868116586
