Participant,Group,Trial,Block,BlockPresentation,Correct,RT,DotDifference,DotNumberRight,DotNumberLeft,Confidence,ConfidenceRT,TimeStamp,TimeStamp+1,RTConf+1,presented_left,picked_left,Zconf,Zdiff,ZRT,RT_MS,Age,WM,NVR1,Monolingual,100.5,4.5,13,0.695,5.695747914,4.55,50.365,50.035,0.5129,0.926065,771.9527318,768.118173,0.928356784,0.46,0.515,3.40E-15,-1.06E-16,6.66E-17,5695.747914,23.083,17,122,Monolingual,100.5,4.5,13,0.725,3.46421837,2.965,50.1,50.085,0.4877,1.081625,637.6690283,635.2641933,1.084934673,0.49,0.545,5.04E-16,2.96E-16,9.21E-17,3464.21837,22.333,16,123,Monolingual,100.5,4.5,13,0.715,2.2948773,4.745,49.53,50.005,0.5721,0.84864,495.1033436,493.4647746,0.84601005,0.555,0.68,-1.34E-16,-9.99E-18,-3.02E-16,2294.8773,20.917,11,94,Monolingual,100.5,4.5,13,0.715,3.736112865,3.215,50.03,49.995,0.5312,1.30155,712.7202494,710.172152,1.303914573,0.485,0.44,6.57E-16,1.67E-16,3.33E-17,3736.112865,28.917,16,85,Monolingual,100.5,4.5,13,0.725,2.801287233,3.895,49.965,50.25,0.5479,0.836905,579.4975575,577.6229022,0.83881407,0.53,0.585,4.68E-15,1.28E-17,-1.52E-15,2801.287233,20.25,17,76,Monolingual,100.5,4.5,13,0.7,2.260100994,3.97,49.895,49.985,0.4795,1.00464,488.1248957,486.5158163,1.00058794,0.525,0.395,4.73E-16,-6.99E-17,-1.62E-16,2260.100994,18.25,23,117,Monolingual,100.5,4.5,13,0.7,4.355750452,5.31,49.66,50.08,0.4953,1.51141,868.2034885,865.2634161,1.514035176,0.565,0.535,-2.53E-17,1.24E-15,-4.88E-16,4355.750452,18.917,13,118,Monolingual,100.5,4.5,13,0.72,3.077465704,4.015,50.49,49.665,0.5814,1.30123,743.6268318,741.5404715,1.304125628,0.42,0.48,-7.77E-17,3.66E-17,-1.87E-16,3077.465704,19.833,20,89,Monolingual,100.5,4.5,13,0.7,2.216056375,8.43,50.945,50.835,0.6119,1.188645,504.5693612,502.8386459,1.189276382,0.49,0.49,1.01E-15,2.41E-16,2.38E-16,2216.056375,19.583,25,1010,Monolingual,100.5,4.5,13,0.705,2.802779636,4.29,49.78,50.02,0.488,1.051405,660.8410418,658.5442992,1.050864322,0.515,0.49,7.75E-16,-2.43E-16,-3.33E-17,2802.779636,20.083,19,911,Monolingual,100.5,4.5,13,0.72,3.102915038,4.845,50.075,50.11,0.4467,1.70489,686.8335768,684.3833026,1.679738693,0.49,0.38,-7.13E-16,-1.78E-16,1.28E-15,3102.915038,20.167,14,912,Monolingual,100.5,4.5,13,0.73,3.280239261,3.13,50.24,49.88,0.542,1.048515,736.7882115,733.6868311,1.050120603,0.45,0.4,2.01E-16,-1.05E-16,-3.60E-16,3280.239261,25.083,19,1113,Monolingual,100.5,4.5,13,0.705,2.05884707,3.66,50.44,50.08,0.5158,0.661655,531.1173882,529.7109602,0.661658291,0.46,0.515,-1.67E-16,-2.39E-16,-5.88E-17,2058.84707,18.75,25,1214,Monolingual,100.5,4.5,13,0.685,3.4608076,4.47,50.19,49.95,0.6008,0.95997,654.4461651,651.8327483,0.961040201,0.48,0.705,9.40E-16,-5.88E-17,1.07E-15,3460.8076,20.167,19,1015,Monolingual,100.5,4.5,13,0.705,2.281886029,4.115,50.15,50.165,0.6775,0.969745,522.523466,520.8076748,0.970286432,0.505,0.42,9.08E-16,-5.55E-17,-4.85E-16,2281.886029,20.75,13,916,Monolingual,100.5,4.5,13,0.7,3.089756887,4.36,50.11,49.94,0.5525,0.8526,694.4833164,691.9698414,0.854467337,0.485,0.395,-4.65E-16,-8.22E-17,-7.50E-16,3089.756887,20.75,26,917,Monolingual,100.5,4.5,13,0.71,3.144406882,4.625,49.835,50.38,0.5557,1.055685,650.144068,647.5359709,1.0569799,0.535,0.345,-1.02E-15,9.10E-17,-5.39E-16,3144.406882,21,21,818,Monolingual,100.5,4.5,13,0.695,3.236344814,3.5,49.925,49.915,0.5892,1.975325,915.0975172,912.1995602,1.973859296,0.49,0.525,2.81E-15,4.33E-17,-1.86E-16,3236.344814,21.583,14,1019,Monolingual,100.5,4.5,13,0.705,2.519149097,5.89,50.57,50.03,0.5573,1.292575,597.3115104,595.3064799,1.292477387,0.465,0.46,2.39E-15,-6.05E-17,4.46E-16,2519.149097,26.833,14,1220,Monolingual,100.5,4.5,13,0.71,2.02243662,6.615,49.92,49.925,0.4935,1.285535,535.5997841,533.9710959,1.277718593,0.485,0.555,-2.65E-15,-7.74E-17,-1.16E-15,2022.43662,19.667,16,621,Monolingual,100.5,4.5,13,0.71,1.99722139,3.93,50.235,50.085,0.5823,1.113,524.6756249,523.0895693,1.116296482,0.475,0.485,-9.50E-16,8.66E-17,-1.22E-15,1997.22139,25.417,14,922,Monolingual,100.5,4.5,13,0.695,4.416213928,4.595,49.83,50.175,0.4239,1.130335,797.2473327,794.2220863,1.131457286,0.555,0.38,-9.79E-16,-4.44E-18,1.57E-16,4416.213928,20.5,17,1223,Monolingual,100.5,4.5,13,0.715,3.751381049,3.755,50.015,50.13,0.4065,0.871485,684.8862675,682.4104954,0.873427136,0.495,0.55,6.01E-16,8.53E-17,-1.50E-15,3751.381049,21.25,16,1024,Monolingual,100.5,4.5,13,0.715,9.496714533,3.955,49.67,49.925,0.5552,2.039455,1705.016131,1699.714743,2.045462312,0.515,0.46,4.79E-16,-2.89E-16,-9.17E-16,9496.714533,27.667,29,1225,Monolingual,100.5,4.5,13,0.715,2.394407661,3.335,49.775,49.81,0.4984,1.283645,648.3274545,646.1685577,1.281462312,0.49,0.525,1.15E-15,1.04E-16,-1.66E-15,2394.407661,34.417,28,1026,Monolingual,100.5,4.5,13,0.715,5.426677879,3.79,49.82,50.1,0.4624,1.286455,845.4205218,841.9209393,1.287984925,0.535,0.61,7.19E-16,5.77E-17,4.65E-16,5426.677879,20.25,14,927,Monolingual,100.5,4.5,13,0.715,2.123870292,4.185,49.77,49.815,0.4548,1.392645,558.5780788,556.8170556,1.393060302,0.5,0.495,2.20E-15,8.55E-17,1.84E-15,2123.870292,18.333,18,928,Monolingual,100.5,4.5,13,0.705,2.793661391,4.335,50.305,50.01,0.6483,0.9964,648.208589,646.3319539,0.995045226,0.45,0.515,1.33E-15,3.72E-17,-1.67E-18,2793.661391,24.5,12,929,Monolingual,100.5,4.5,13,0.72,4.153583151,3.65,49.81,50.16,0.5378,0.870645,700.5736914,697.9582851,0.871306533,0.54,0.55,-2.56E-16,6.66E-18,1.59E-15,4153.583151,24.167,20,1230,Monolingual,100.5,4.5,13,0.725,3.692342156,3.94,49.795,49.975,0.5929,1.449265,747.0480213,744.4529602,1.447904523,0.5,0.485,-4.77E-16,1.09E-16,-3.63E-16,3692.342156,27.25,17,1231,Monolingual,100.5,4.5,13,0.71,3.00334609,4.35,50.01,49.81,0.4772,1.26531,631.2980424,629.1321409,1.263984925,0.49,0.58,-3.34E-16,2.73E-16,9.34E-16,3003.34609,19.833,11,1132,Bilingual,100.5,4.5,13,0.695,2.4355409,4.48,49.91,50.04,0.565,1.66795,640.5425414,638.5258392,1.669562814,0.525,0.6,2.20E-15,-2.75E-16,-6.08E-16,2435.5409,19.917,19,1133,Bilingual,100.5,4.5,13,0.715,3.408380808,4.985,50.475,49.79,0.5087,1.262885,812.6872832,810.224669,1.264366834,0.42,0.475,-6.00E-16,-3.57E-16,1.40E-15,3408.380808,26.417,13,1034,Bilingual,100.5,4.5,13,0.7,2.058147806,4.425,49.77,50.145,0.6031,0.70267,577.5320907,576.2180566,0.702839196,0.515,0.535,5.84E-15,3.05E-18,-5.82E-16,2058.147806,24.917,12,1035,Bilingual,100.5,4.5,13,0.7,1.756311583,4.66,49.645,49.665,0.3987,0.87212,531.0047409,529.7623959,0.872025126,0.505,0.455,1.93E-15,-1.99E-16,-9.80E-16,1756.311583,34.083,16,1236,Bilingual,100.5,4.5,13,0.73,4.083222852,3.105,49.92,50.235,0.5391,1.38704,840.0820967,836.953776,1.388341709,0.52,0.69,-1.34E-15,6.66E-17,-1.01E-16,4083.222852,27.417,14,1237,Bilingual,100.5,4.5,13,0.71,1.878600448,4.275,49.555,49.98,0.5318,0.747325,557.1374499,555.5659677,0.747467337,0.54,0.57,-4.32E-15,-6.66E-18,3.79E-16,1878.600448,22.833,15,1238,Bilingual,100.5,4.5,13,0.705,2.143897547,6.12,50.315,50.675,0.7258,0.803335,722.5055477,720.7686574,0.805,0.505,0.71,-1.27E-15,-1.17E-16,-3.15E-16,2143.897547,28.583,16,1139,Bilingual,100.5,4.5,13,0.72,3.869716503,4.265,49.965,49.7,0.5852,1.64512,853.2950949,850.5332516,1.644361809,0.445,0.565,-1.32E-15,1.27E-16,-1.37E-15,3869.716503,27,26,1040,Bilingual,100.5,4.5,13,0.705,2.583574428,5.085,49.915,50.14,0.5917,1.09336,658.1994855,656.2302352,1.089045226,0.53,0.425,6.12E-16,-2.22E-18,5.67E-16,2583.574428,26,18,1141,Bilingual,100.5,4.5,13,0.71,2.700253744,3.475,49.925,49.78,0.7594,0.75105,555.3662722,553.6836591,0.750567839,0.47,0.55,2.32E-15,7.66E-17,-1.09E-16,2700.253744,28.75,14,1042,Bilingual,100.5,4.5,13,0.705,1.908614697,5.185,50.48,49.855,0.7983,0.86151,451.792881,450.517414,0.861819095,0.415,0.54,2.06E-15,4.41E-16,2.87E-16,1908.614697,21.25,8,943,Bilingual,100.5,4.5,13,0.7,2.186890139,4.205,50.175,50.66,0.7239,1.020595,565.1672174,563.3543289,1.023386935,0.54,0.44,-3.77E-16,1.91E-16,6.73E-16,2186.890139,20.583,11,1244,Bilingual,100.5,4.5,13,0.705,2.81044799,5.67,50.035,50.235,0.6503,1.064425,673.2226435,671.3062575,1.064974874,0.505,0.54,2.00E-17,2.00E-17,-3.22E-16,2810.44799,21.333,14,1145,Bilingual,100.5,4.5,13,0.68,1.449643818,7.25,49.435,50.055,0.5817,0.86638,558.6918958,557.5459844,0.867748744,0.53,0.52,-6.33E-16,9.21E-17,9.38E-16,1449.643818,20.5,18,946,Bilingual,100.5,4.5,13,0.71,3.039215275,4.53,49.68,49.92,0.6002,1.01239,687.5600154,685.3502118,1.013527638,0.52,0.45,8.54E-15,-3.16E-16,-5.84E-16,3039.215275,19.583,14,947,Bilingual,100.5,4.5,13,0.71,2.780101992,3.94,50.035,50.245,0.497,1.073425,739.2075011,737.316631,1.073638191,0.535,0.505,4.39E-16,2.66E-17,-1.72E-15,2780.101992,23.667,13,1148,Bilingual,100.5,4.5,13,0.725,4.44852929,3.005,49.975,49.97,0.516,0.99618,1041.893279,1039.404936,0.996944724,0.5,0.445,-2.27E-16,-1.55E-17,-5.18E-16,4448.52929,24.667,21,1149,Bilingual,100.5,4.5,13,0.69,2.211949017,4.46,49.62,49.93,0.6072,0.924975,553.6878092,552.2585199,0.926844221,0.52,0.54,1.94E-16,3.77E-17,4.19E-16,2211.949017,22.167,19,950,Bilingual,100.5,4.5,13,0.715,1.975929718,4.41,49.94,49.86,0.6577,1.193595,632.9617043,631.4152677,1.193211055,0.48,0.505,-3.83E-15,-1.30E-16,2.65E-16,1975.929718,29.167,18,951,Bilingual,100.5,4.5,13,0.705,2.177031642,4.565,50.175,50.06,0.5639,0.84458,552.5712009,551.1049569,0.846080402,0.5,0.575,-7.17E-16,6.88E-17,-3.66E-16,2177.031642,21,17,952,Bilingual,100.5,4.5,13,0.73,2.407721626,3.12,49.905,49.935,0.7387,1.022345,589.5232577,587.7834748,1.024949749,0.49,0.41,-1.51E-15,1.59E-16,6.19E-16,2407.721626,25.5,15,1053,Bilingual,100.5,4.5,13,0.695,3.048895905,4.095,49.92,50.345,0.5725,1.353925,668.3711804,666.2269466,1.3509799,0.55,0.555,4.46E-16,2.62E-16,-1.20E-16,3048.895905,26.75,18,1254,Bilingual,100.5,4.5,13,0.7,4.281139153,3.135,50.065,50.1,0.5573,1.13844,777.8675509,775.1355628,1.139527638,0.51,0.37,-1.53E-16,2.02E-16,-1.50E-15,4281.139153,21.5,16,1255,Bilingual,100.5,4.5,13,0.725,2.383177821,5.81,49.91,50.05,0.6567,1.18925,597.2672895,595.537438,1.192130653,0.52,0.295,-3.99E-16,1.54E-16,-6.77E-16,2383.177821,24.75,18,556,Bilingual,100.5,4.5,13,0.7,1.946055556,5.135,49.675,49.79,0.5493,1.0371,551.609821,550.1098247,1.037778894,0.515,0.755,-1.78E-15,4.88E-17,-8.30E-16,1946.055556,23.167,20,1257,Bilingual,100.5,4.5,13,0.7,2.17421085,6.455,49.79,49.825,0.6114,1.106545,502.2454846,500.5008775,1.104336683,0.505,0.455,-4.88E-16,5.61E-16,-1.32E-16,2174.21085,24.333,11,558,Bilingual,100.5,4.5,13,0.705,4.295275617,5.195,49.805,49.35,0.5122,1.32573,902.4659706,900.024419,1.330341709,0.445,0.46,-3.20E-16,-1.71E-16,4.53E-16,4295.275617,20.5,11,1159,Bilingual,100.5,4.5,13,0.7,2.427456424,5.255,49.69,50.365,0.6923,1.624765,667.6974481,665.6170232,1.624924623,0.555,0.405,2.23E-15,1.37E-16,-3.54E-16,2427.456424,27.5,16,1160,Bilingual,100.5,4.5,13,0.715,1.815566843,4.515,49.62,50.415,0.5579,1.68924,569.7747148,567.8230012,1.691135678,0.555,0.53,-1.69E-15,3.90E-16,-2.52E-15,1815.566843,26.75,22,1261,Bilingual,100.5,4.5,13,0.705,1.568962246,5.785,50.24,50.125,0.5619,1.10505,470.6587502,469.1943433,1.105723618,0.49,0.575,5.01E-16,-2.81E-16,-6.37E-16,1568.962246,34.083,19,962,Bilingual,100.5,4.5,13,0.735,4.798741329,3.175,50.1,50.015,0.5876,1.07966,936.9532022,934.1598078,1.079643216,0.495,0.66,-8.26E-15,1.71E-16,3.52E-16,4798.741329,38.25,15,11